Folder: Nickel_Dithiolene_Research_Experimental_Data/Data_01_Experiment

Note: README.md
# Nickel_Dithiolene_Research_Experimental_Data
Init_Data
This is a data repository that support the findings in the manuscript "Electrochemically Modulated Separation of Olefin-Paraffin Gas Mixtures in Membrane Electrode Assemblies". All uploaded codes use Matlab software version 2022A or above. All codes can be run on operating system windows 10 or above on any PC with sufficient memory to run Matlab. Refer to the System Requirements Page for Matlab at https://www.mathworks.com/support/requirements/matlab-system-requirements.html for further information.

On matlab, run the script "Graph_Results_Summary_v01" to plot all relevant graphs that are shown in the main manuscript. Further details including Gas Chromatographs of all experimental recordings can be found in individual numbered data folder. To find the appropriate data folder, refer to the excel spreadsheet "Result_Summary" which contains tables of summary data. Each column is labeled by the data folder number to which it pertains to.

In each data folder, it contains all appropriate raw chromatograph data from the MIcro GC 990 as ASCII file in "Compiled_Data" folder. Matlab codes used to analyze the gas chromatographs and chronoamperometry data are also included in each numbered data folder. To output and analyze the raw chromatograph data, run the script "Micro_GC_990_Data_Spreadsheet_Summary_v01". Be sure to edit the path_address within the Matlab script to direct the code to analyze the raw files from the appropriate address in your computer (e.g. C:\Users\Default\Documents\Compiled_Data\). To output the graphs shown in the Supplementary Information, run the script MEA_Experimental_Result_v01. Raw Chronoamperometry data (as text file) from the Potentiostat is included in each numbered data folder.

File: CA_001_C01.txt
time/s	Ewe/V	<I>/mA
1	1.49925	0.286319
193	1.49925	0.0994721
385	1.49925	0.101809
577	1.49936	0.111639
769	1.49934	0.117222
961	1.49923	0.120312
1153	1.49931	0.125345
1345	1.49933	0.127324
1537	1.49927	0.128771
1729	1.49917	0.129504
1920.95	-0.000986321	-0.000720998
2112.95	-0.0010054	-0.000228541
2304.95	-0.00111984	-8.1999e-05
2496.95	-0.00110077	-1.50778e-05
2688.95	-0.00102447	2.01858e-05
2880.95	-0.00111984	4.19971e-05
3072.95	-0.00108169	5.50883e-05
3264.95	-0.00104354	6.62491e-05
3456.95	-0.00104354	7.55559e-05
3648.95	-0.000929099	8.10037e-05
3840.95	-0.00104354	8.69013e-05
4032.95	-0.000833729	9.08009e-05
4224.95	-0.00102447	9.41307e-05
4416.95	-0.00113891	9.73275e-05
4608.95	-0.0010054	0.000100587
4800.95	-0.00110077	0.000102821
4992.95	-0.0010054	0.000104115
5184.95	-0.000967247	0.000105337
5376.95	-0.00110077	0.000105721
5568.95	-0.00111984	0.000106149
5760.95	-0.000967247	0.000107656
5952.95	-0.00115799	0.00010788
6144.95	-0.000986321	0.000109911
6336.95	-0.00102447	0.000110547
6528.95	-0.0010054	0.000110919
6720.95	-0.00102447	0.000110977
6912.95	-0.00119614	0.00011097
7104.95	-0.00111984	0.000112094
7296.95	-0.00110077	0.000117963
7488.95	-0.00110077	0.000117233
7680.95	-0.000986321	0.000117935
7872.95	-0.000986321	0.000118938
8064.95	-0.00104354	0.000118261
8256.95	-0.000929099	0.000119354
8448.95	-0.000948173	0.000118613
8640.95	-0.000967247	0.000118866
8832.95	-0.00117706	0.000119817
9024.95	-0.000986321	0.000119458
9216.95	-0.000948173	0.000119514
9408.95	-0.00110077	0.000120257
9600.95	-0.000929099	0.000119815
9792.95	-0.000910025	0.000120726
9984.95	-0.00106262	0.00012172
10177	-0.00113891	0.000121072
10369	-0.00108169	0.000121615
10561	-0.00111984	0.000122644
10753	-0.00102447	0.000122227
10945	-2.00096	-1.11184
11137	-2.0007	-0.894598
11329	-2.00087	-0.796046
11521	-2.00081	-0.725816
11713	-0.00113891	0.0656913
11905	-0.000948173	0.00360785
12097	-0.00108169	0.00190439
12289	-0.000910025	0.00133997
12481	-0.00102447	0.00103399
12673	-0.000948173	0.000848501
12865	-0.0010054	0.00072664
13057	-0.00106262	0.0006421
13249	-0.00104354	0.000578807
13441	-0.00106262	0.000530365
13633	-0.000967247	0.000489048
13825	-0.00108169	0.000457052
14017	-0.000890951	0.000429291
14209	-0.00106262	0.000408134
14401	1.49927	3.94355
14593	1.4994	0.271489
14785	1.49936	0.219137
14977	1.49931	0.20935
15169	1.49933	0.204824
15361	1.49919	0.201388
15553	1.49938	0.198399
15745	1.49931	0.195675
15937	1.49925	0.192854
16129	1.49923	0.190868
16321	-0.0010054	-0.00132042
16513	-0.0010054	-0.00055705
16705	-0.000986321	-0.000318928
16897	-0.00110077	-0.000191651
17089	-0.000929099	-0.000118616
17281	-0.00108169	-7.12588e-05
17473	-0.000948173	-3.87694e-05
17665	-0.000910025	-1.60744e-05
17857	-0.00102447	4.04998e-07
18049	-0.000948173	1.42823e-05
18241	-0.000910025	2.46323e-05
18433	-0.00113891	3.32547e-05
18625	-0.00113891	3.9658e-05
18817	-0.00110077	4.549e-05
19009	-0.000967247	5.13804e-05
19201	-0.00104354	5.58893e-05
19393	-0.00102447	5.98602e-05
19585	-0.000871877	6.34998e-05
19777	-0.000967247	6.57451e-05
19969	-0.00102447	6.8569e-05
20161	-0.00110077	7.12083e-05
20353	-0.00108169	7.2394e-05
20545	-0.000910025	7.33862e-05
20737	-0.00102447	7.59568e-05
20929	-0.00104354	7.68667e-05
21121	-0.0010054	7.76935e-05
21313	-0.000967247	7.98835e-05
21505	-0.00104354	7.98863e-05
21697	-0.000929099	8.07261e-05
21889	-0.00113891	8.19576e-05
22081	-0.000890951	8.18582e-05
22273	-0.00113891	8.2572e-05
22465	-0.00113891	8.35358e-05
22657	-0.000967247	8.35209e-05
22849	-0.00115799	8.48006e-05
23041	-0.00104354	8.50062e-05
23233	-0.00106262	8.53629e-05
23425	-0.000967247	8.56784e-05
23617	-0.000910025	8.62216e-05
23809	-0.000948173	8.62217e-05
24001	-0.0010054	8.66488e-05
24193	-0.000986321	8.74612e-05
24385	-0.000890951	8.77905e-05
24577	-0.00106262	8.78648e-05
24769	-0.000910025	8.78921e-05
24961	-0.00111984	8.85548e-05
25153	-0.00104354	8.89327e-05
25345	-2.00094	-0.817318
25537	-2.00087	-0.679336
25729	-2.00073	-0.631219
25921	-2.00079	-0.611785
26113	-0.000910025	0.172442
26305	-0.00102447	0.00891606
26497	-0.000967247	0.0042124
26689	-0.000948173	0.00274215
26881	-0.00102447	0.00205058
27073	-0.000986321	0.00164138
27265	-0.00108169	0.00136757
27457	-0.00106262	0.00117138
27649	-0.00102447	0.00102921
27841	-0.000967247	0.000921888
28033	-0.00115799	0.000836444
28225	-0.000948173	0.00076731
28417	-0.00104354	0.000711737
28609	-0.00106262	0.00066386
28801	1.49927	11.4325
28993	1.49934	0.330148
29185	1.49917	0.25355
29377	1.49919	0.23558
29569	1.49927	0.226295
29761	1.49931	0.220479
29953	1.49929	0.215997
30145	1.49936	0.212633
30337	1.49952	0.210036
30529	1.49921	0.207852
30721	-0.000910025	-0.00167885
30913	-0.00102447	-0.000762264
31105	-0.00113891	-0.00047607
31297	-0.00108169	-0.000320763
31489	-0.00104354	-0.000224305
31681	-0.00102447	-0.000164975
31873	-0.00108169	-0.000123195
32065	-0.000929099	-9.16255e-05
32257	-0.000890951	-6.56863e-05
32449	-0.0010054	-4.80295e-05
32641	-0.00104354	-3.19817e-05
32833	-0.00108169	-2.15251e-05
33025	-0.000852803	-1.41768e-05
33217	-0.00113891	-3.88961e-06
33409	-0.000986321	3.12887e-06
33601	-0.000910025	9.83065e-06
33793	-0.000948173	1.48423e-05
33985	-0.0010054	1.96028e-05
34177	-0.00119614	2.50031e-05
34369	-0.00111984	7.98697e-06
34561	-0.000967247	2.92798e-05
34753	-0.00104354	3.29171e-05
34945	-0.000967247	3.5307e-05
35137	-0.0010054	3.87721e-05
35329	-0.00102447	4.13594e-05
35521	-0.00104354	4.35342e-05
35713	-0.000948173	4.59643e-05
35905	-0.00111984	4.86293e-05
36097	-0.00111984	4.93935e-05
36289	-0.000910025	5.21468e-05
36481	-0.000890951	5.3214e-05
36673	-0.000910025	5.47001e-05
36865	-0.00108169	5.61961e-05
37057	-0.000986321	5.70756e-05
37249	-0.000986321	5.73748e-05
37441	-0.00119614	5.96829e-05
37633	-0.00110077	6.04088e-05
37825	-0.000967247	6.10129e-05
38017	-0.00111984	6.29299e-05
38209	-0.00111984	6.21937e-05
38401	-0.000967247	6.34528e-05
38593	-0.000967247	6.54001e-05
38785	-0.000967247	6.55383e-05
38977	-0.000948173	0.000115225
39169	-0.00110077	0.00010235
39361	-0.00108169	9.75374e-05
39553	-0.00108169	0.000111925
39745	-2.00079	-0.875437
39937	-2.00079	-0.750164
40129	-2.00073	-0.72785
40321	-2.00087	-0.723219
40513	-0.00104354	0.276593
40705	-0.000967247	0.0149149
40897	-0.000986321	0.00699786
41089	-0.00117706	0.0044702
41281	-0.0010054	0.00331619
41473	-0.00113891	0.00269663
41665	-0.00111984	0.00224676
41857	-0.00108169	0.00195085
42049	-0.00106262	0.00171977
42241	-0.000986321	0.00153129
42433	-0.0010054	0.00139156
42625	-0.000948173	0.00127118
42817	-0.000986321	0.00117699
43009	-0.000967247	0.00110843
43201	1.49934	15.6853
43393	1.4991	0.332228
43585	1.49934	0.242335
43777	1.49944	0.220978
43969	1.49948	0.211441
44161	1.49936	0.205651
44353	1.49917	0.200913
44545	1.4994	0.1976
44737	1.49936	0.194796
44929	1.49933	0.192448
45121	-0.00106262	-0.0020202
45313	-0.0010054	-0.000953516
45505	-0.0010054	-0.000609845
45697	-0.000929099	-0.000420051
45889	-0.00106262	-0.000302771
46081	-0.0010054	-0.000229827
46273	-0.00106262	-0.000182544
46465	-0.00104354	-0.000145208
46657	-0.0010054	-0.000118028
46849	-0.00113891	-9.85328e-05
47041	-0.0010054	-8.1246e-05
47233	-0.00102447	-6.70343e-05
47425	-0.00106262	-5.91086e-05
47617	-0.00113891	-4.85745e-05
47809	-0.00110077	-3.89931e-05
48001	-0.00115799	-3.59407e-05
48193	-0.000929099	-2.88488e-05
48385	-0.00102447	-2.19943e-05
48577	-0.000871877	-1.84596e-05
48769	-0.000986321	-1.42607e-05
48961	-0.00106262	-9.34504e-06
49153	-0.000929099	-6.67419e-06
49345	-0.00110077	-1.73236e-06
49537	-0.0010054	1.44299e-06
49729	-0.000986321	3.32572e-06
49921	-0.000967247	6.80207e-06
50113	-0.000948173	9.53559e-06
50305	-0.00110077	1.17831e-05
50497	-0.00108169	1.59848e-05
50689	-0.00102447	1.70718e-05
50881	-0.000910025	1.83367e-05
51073	-0.00106262	2.15974e-05
51265	-0.000967247	2.32534e-05
51457	-0.000890951	2.51524e-05
51649	-0.000948173	2.78848e-05
51841	-0.00104354	2.98178e-05
52033	-0.000986321	3.10974e-05
52225	-0.00102447	3.2701e-05
52417	-0.000910025	3.47918e-05
52609	-0.00108169	3.64059e-05
52801	-0.00108169	3.66376e-05
52993	-0.0010054	3.85128e-05
53185	-0.000910025	4.05378e-05
53377	-0.00106262	4.03476e-05
53569	-0.0010054	4.14543e-05
53761	-0.00106262	4.25413e-05
53953	-0.000986321	0.000230659
54145	-2.00085	-0.944794
54337	-2.00079	-0.832071
54529	-2.00087	-0.819969
54721	-2.00091	-0.8179
54913	-0.0010054	0.351901
55105	-0.00113891	0.018121
55297	-0.00115799	0.00833616
55489	-0.000986321	0.00525579
55681	-0.000967247	0.0038225
55873	-0.0010054	0.00302978
56065	-0.00104354	0.00250763
56257	-0.000967247	0.00213707
56449	-0.00104354	0.00185725
56641	-0.000929099	0.0016424
56833	-0.00102447	0.00147954
57025	-0.0010054	0.00134471
57217	-0.000967247	0.00123569
57409	-0.000948173	0.00114645
57600	-0.000929099	0.00106865