Folder: Nickel_Dithiolene_Research_Experimental_Data/Data_27_Experiment

Note: README.md
# Nickel_Dithiolene_Research_Experimental_Data
Init_Data
This is a data repository that support the findings in the manuscript "Electrochemically Modulated Separation of Olefin-Paraffin Gas Mixtures in Membrane Electrode Assemblies". All uploaded codes use Matlab software version 2022A or above. All codes can be run on operating system windows 10 or above on any PC with sufficient memory to run Matlab. Refer to the System Requirements Page for Matlab at https://www.mathworks.com/support/requirements/matlab-system-requirements.html for further information.

On matlab, run the script "Graph_Results_Summary_v01" to plot all relevant graphs that are shown in the main manuscript. Further details including Gas Chromatographs of all experimental recordings can be found in individual numbered data folder. To find the appropriate data folder, refer to the excel spreadsheet "Result_Summary" which contains tables of summary data. Each column is labeled by the data folder number to which it pertains to.

In each data folder, it contains all appropriate raw chromatograph data from the MIcro GC 990 as ASCII file in "Compiled_Data" folder. Matlab codes used to analyze the gas chromatographs and chronoamperometry data are also included in each numbered data folder. To output and analyze the raw chromatograph data, run the script "Micro_GC_990_Data_Spreadsheet_Summary_v01". Be sure to edit the path_address within the Matlab script to direct the code to analyze the raw files from the appropriate address in your computer (e.g. C:\Users\Default\Documents\Compiled_Data\). To output the graphs shown in the Supplementary Information, run the script MEA_Experimental_Result_v01. Raw Chronoamperometry data (as text file) from the Potentiostat is included in each numbered data folder.

File: CA_205_C01.txt
time/s	Ewe/V	<I>/mA
1	2.99899	434.275
193	2.99899	24.0408
385	2.99896	24.4784
577	2.99903	25.3085
769	2.99898	26.8526
961	2.99924	28.7055
1153	2.99919	30.4927
1345	2.99886	31.7224
1537	2.99917	31.9125
1729	2.99907	31.5778
1920.95	-0.000866098	-1.10198
2112.95	-0.000866098	-0.17801
2304.97	-0.000866098	0.0285801
2496.98	-0.000885172	-0.0856579
2688.98	-0.000904246	-0.016619
2881.01	-0.00101869	0.0349295
3073.04	-0.000885172	-0.0413264
3265.06	-0.00101869	-0.00204756
3457.07	-0.000827949	0.0260288
3649.12	-0.000904246	-0.0211932
3841.18	-0.000789802	-0.0014478
4033.23	-0.000866098	0.0191059
4225.28	-0.000866098	0.010863
4417.36	-0.000789802	-0.00209681
4609.49	-0.000885172	0.0128916
4801.51	-0.000847024	0.015827
4993.56	-0.000961469	-0.00459274
5185.59	-0.000904246	0.0101743
5377.6	-0.000847024	0.0155113
5569.67	-0.000713505	-0.00463676
5761.75	-0.000904246	0.0102085
5953.78	-0.000751653	0.0152348
6145.8	-0.000770727	-0.00431714
6337.8	-0.000808876	0.00798116
6529.84	-0.000866098	0.0133904
6721.88	-0.000866098	0.000369294
6913.94	-0.000866098	0.0106399
7106	-0.000942394	0.0163499
7298.02	-0.000885172	0.00392562
7490.04	-0.000942394	0.00797985
7682.06	-0.000885172	0.0118208
7874.14	-0.000789802	0.00509287
8066.18	-0.000847024	0.00306596
8258.23	-0.000885172	0.00984498
8450.26	-0.000866098	0.0112903
8642.28	-0.000885172	0.00767876
8834.3	-0.000885172	0.0142286
9026.3	-0.000808876	0.0152326
9218.3	-0.000827949	0.0101819
9410.3	-0.000732579	0.0156607
9602.3	-0.000961469	0.0180198
9794.3	-0.000904246	0.0130191
9986.3	-0.000904246	0.018193
10178.3	-0.000961469	0.0199161
10370.3	-0.000866098	0.0136554
10562.3	-0.000961469	0.018204
10754.3	-0.000980543	0.0175778
10946	-2.00095	-20.198
11138	-2.00076	-11.0461
11330	-2.00091	-8.51316
11522	-2.00102	-7.35584
11714	-0.000875262	7.06066
11906	-0.000722669	0.862408
12098	-0.00110415	0.61048
12290	-0.000837114	0.50566
12482	-0.000970633	0.452168
12674	-0.00081804	0.412387
12866	-0.00081804	0.382193
13058	-0.000951559	0.359216
13250	-0.000894336	0.338237
13442	-0.00100878	0.319103
13634	-0.000951559	0.302783
13826	-0.000856188	0.290667
14018	-0.000913411	0.274224
14210	-0.00100878	0.262453
14402	2.99913	301.975
14594	2.99915	35.681
14786	2.99911	34.1313
14978	2.99907	36.28
15170	2.99907	38.1302
15362	2.99901	41.0162
15554	2.99894	42.9125
15746	2.99903	44.5855
15938	2.99907	44.8889
16130	2.99892	44.9767
16322	-0.000961469	-1.15883
16514	-0.000904246	-0.522196
16706	-0.000885172	-0.432782
16898	-0.000942394	-0.373522
17090	-0.000751653	-0.304096
17282	-0.000885172	-0.263756
17474	-0.000904246	-0.242686
17666	-0.000885172	-0.203986
17858	-0.000827949	-0.180122
18050	-0.000751653	-0.174943
18242	-0.000770727	-0.151686
18434	-0.000904246	-0.13599
18626	-0.000789802	-0.132716
18818	-0.000808876	-0.112533
19010	-0.000847024	-0.101777
19202	-0.000732579	-0.101382
19394	-0.000904246	-0.0882597
19586	-0.000866098	-0.0790106
19778	-0.000904246	-0.0787108
19970	-0.00092332	-0.0665209
20162	-0.000866098	-0.0602683
20354	-0.000770727	-0.0665409
20546	-0.000827949	-0.0601076
20738	-0.000847024	-0.0538233
20930	-0.00101869	-0.0527428
21122	-0.000942394	-0.0455453
21314	-0.00092332	-0.0399082
21506	-0.000827949	-0.0378124
21698	-0.000885172	-0.0343711
21890	-0.00092332	-0.0285591
22082	-0.000770727	-0.0262657
22274	-0.000827949	-0.0262243
22466	-0.000808876	-0.0211187
22658	-0.000827949	-0.0201973
22850	-0.000885172	-0.0196435
23042	-0.000847024	-0.0152582
23234	-0.000904246	-0.0135066
23426	-0.000866098	-0.0145331
23618	-0.000808876	-0.0108901
23810	-0.000827949	-0.00842114
24002	-0.000713505	-0.00898311
24194	-0.000847024	-0.00738002
24386	-0.000847024	-0.00756772
24578	-0.00092332	-0.0085258
24770	-0.000866098	-0.00525468
24962	-0.000885172	-0.00383039
25154	-0.000885172	-0.00349567
25346	-2.00091	-21.6363
25538	-2.00079	-11.604
25730	-2.00097	-10.3334
25922	-2.00091	-9.3939
26114	-0.00100878	8.42264
26306	-0.000932485	0.762267
26498	-0.000970633	0.511634
26690	-0.000951559	0.398528
26882	-0.000894336	0.332125
27074	-0.00108508	0.285585
27266	-0.000989707	0.258857
27458	-0.00100878	0.241627
27650	-0.000989707	0.223779
27842	-0.000932485	0.216036
28034	-0.00081804	0.210468
28226	-0.000913411	0.199036
28418	-0.00104693	0.195158
28610	-0.000875262	0.19075
28802	2.99917	318.995
28994	2.99907	40.9735
29186	2.99911	37.3573
29378	2.99917	37.2766
29570	2.99913	43.1394
29762	2.99919	46.9183
29954	2.99917	47.746
30146	2.99901	48.1968
30338	2.99903	48.7116
30530	2.99899	48.8716
30722	-0.000942394	-1.47869
30914	-0.000980543	-0.58884
31106	-0.00092332	-0.48201
31298	-0.000866098	-0.414885
31490	-0.000885172	-0.370681
31682	-0.000980543	-0.339145
31874	-0.000827949	-0.300233
32066	-0.00101869	-0.274915
32258	-0.000980543	-0.265308
32450	-0.000904246	-0.24284
32642	-0.000885172	-0.228907
32834	-0.000866098	-0.225367
33026	-0.000789802	-0.213023
33218	-0.00092332	-0.204253
33410	-0.000751653	-0.200292
33602	-0.000827949	-0.187092
33794	-0.000847024	-0.177991
33986	-0.000866098	-0.167457
34178	-0.000789802	-0.157606
34370	-0.000904246	-0.146646
34562	-0.000885172	-0.140822
34754	-0.000751653	-0.134751
34946	-0.000942394	-0.123844
35138	-0.000904246	-0.11922
35330	-0.000751653	-0.115313
35522	-0.000808876	-0.107801
35714	-0.000942394	-0.103113
35906	-0.00092332	-0.0989061
36098	-0.000770727	-0.0937891
36290	-0.00092332	-0.0906244
36482	-0.000770727	-0.0872825
36674	-0.000751653	-0.0818372
36866	-0.000885172	-0.077735
37058	-0.000866098	-0.0752308
37250	-0.000847024	-0.0694257
37442	-0.000808876	-0.0652219
37634	-0.000866098	-0.0630158
37826	-0.00092332	-0.0569714
38018	-0.000961469	-0.0520671
38210	-0.000885172	-0.0500586
38402	-0.000847024	-0.0456306
38594	-0.000961469	-0.0429527
38786	-0.000770727	-0.041358
38978	-0.000847024	-0.0381383
39170	-0.000866098	-0.0360831
39362	-0.000827949	-0.0350251
39554	-0.000980543	-0.0332086
39746	-2.00083	-24.7218
39938	-2.00081	-13.0505
40130	-2.00097	-9.95967
40322	-2.00087	-8.89658
40514	-0.00102786	10.042
40706	-0.000989707	0.719617
40898	-0.000932485	0.484906
41090	-0.00104693	0.381233
41282	-0.000913411	0.310919
41474	-0.000989707	0.268261
41666	-0.000875262	0.239154
41858	-0.00100878	0.212675
42050	-0.000951559	0.199771
42242	-0.000894336	0.186992
42434	-0.00102786	0.17479
42626	-0.000913411	0.167709
42818	-0.000856188	0.161985
43010	-0.000856188	0.153949
43202	2.99913	277.142
43394	2.99901	39.9142
43586	2.99909	39.5689
43778	2.99909	43.6292
43970	2.99915	45.8195
44162	2.9989	45.8968
44354	2.99917	43.8533
44546	2.99898	42.1141
44738	2.99899	40.1067
44930	2.99898	37.9953
45122	-0.000980543	-1.7631
45314	-0.000789802	-0.650454
45506	-0.000885172	-0.488199
45698	-0.000904246	-0.425437
45890	-0.000961469	-0.388177
46082	-0.000961469	-0.359804
46274	-0.000942394	-0.334751
46466	-0.000827949	-0.323806
46658	-0.00105684	-0.307211
46850	-0.000885172	-0.283969
47042	-0.000827949	-0.263957
47234	-0.000827949	-0.249558
47426	-0.000999616	-0.234602
47618	-0.000961469	-0.224922
47810	-0.000885172	-0.214354
48002	-0.000942394	-0.202828
48194	-0.000885172	-0.19403
48386	-0.000827949	-0.18552
48578	-0.000904246	-0.176449
48770	-0.000732579	-0.168965
48962	-0.000866098	-0.1627
49154	-0.000827949	-0.153663
49346	-0.000808876	-0.147691
49538	-0.000827949	-0.141456
49730	-0.000847024	-0.133456
49922	-0.000904246	-0.129386
50114	-0.000866098	-0.124195
50306	-0.000847024	-0.11929
50498	-0.000847024	-0.113614
50690	-0.000847024	-0.109821
50882	-0.000751653	-0.105108
51074	-0.00092332	-0.0997118
51266	-0.000827949	-0.0964142
51458	-0.000827949	-0.0918391
51650	-0.000751653	-0.0863621
51842	-0.000999616	-0.0820638
52034	-0.000827949	-0.0768617
52226	-0.00092332	-0.0735345
52418	-0.000904246	-0.0723375
52610	-0.000904246	-0.0688806
52802	-0.000885172	-0.066504
52994	-0.000904246	-0.0635378
53186	-0.000808876	-0.0597214
53378	-0.000866098	-0.056917
53570	-0.000808876	-0.0538826
53762	-0.000751653	-0.0513377
53954	-0.000980543	-0.0484134
54146	-2.00091	-27.7904
54338	-2.00106	-18.0902
54530	-2.00095	-12.8773
54722	-2.00093	-11.3609
54914	-0.000837114	11.8671
55106	-0.00102786	0.746274
55298	-0.00081804	0.489773
55490	-0.000875262	0.375508
55682	-0.000875262	0.309061
55874	-0.000951559	0.266193
56066	-0.000798966	0.232327
56258	-0.000856188	0.211154
56450	-0.000951559	0.193009
56642	-0.000779892	0.180289
56834	-0.000913411	0.168754
57026	-0.000951559	0.161321
57218	-0.00081804	0.153114
57410	-0.000856188	0.145573
57600	-0.000951559	0.139474