Folder: Nickel_Dithiolene_Research_Experimental_Data/Data_21_Experiment

Note: README.md
# Nickel_Dithiolene_Research_Experimental_Data
Init_Data
This is a data repository that support the findings in the manuscript "Electrochemically Modulated Separation of Olefin-Paraffin Gas Mixtures in Membrane Electrode Assemblies". All uploaded codes use Matlab software version 2022A or above. All codes can be run on operating system windows 10 or above on any PC with sufficient memory to run Matlab. Refer to the System Requirements Page for Matlab at https://www.mathworks.com/support/requirements/matlab-system-requirements.html for further information.

On matlab, run the script "Graph_Results_Summary_v01" to plot all relevant graphs that are shown in the main manuscript. Further details including Gas Chromatographs of all experimental recordings can be found in individual numbered data folder. To find the appropriate data folder, refer to the excel spreadsheet "Result_Summary" which contains tables of summary data. Each column is labeled by the data folder number to which it pertains to.

In each data folder, it contains all appropriate raw chromatograph data from the MIcro GC 990 as ASCII file in "Compiled_Data" folder. Matlab codes used to analyze the gas chromatographs and chronoamperometry data are also included in each numbered data folder. To output and analyze the raw chromatograph data, run the script "Micro_GC_990_Data_Spreadsheet_Summary_v01". Be sure to edit the path_address within the Matlab script to direct the code to analyze the raw files from the appropriate address in your computer (e.g. C:\Users\Default\Documents\Compiled_Data\). To output the graphs shown in the Supplementary Information, run the script MEA_Experimental_Result_v01. Raw Chronoamperometry data (as text file) from the Potentiostat is included in each numbered data folder.

File: CA_001_C01.txt
time/s	Ewe/V	<I>/mA
1	-0.000715755	9.87529
193	-0.000734829	0.0573352
385	-0.000944644	0.0405334
577	-0.000906496	0.0342528
769	-0.000868348	0.0303018
961	-0.000849274	0.0279283
1153	-0.000811126	0.0261142
1345	-0.00102094	0.0246792
1537	-0.000868348	0.0234649
1729	-0.000887422	0.0224466
1920.95	-0.000849274	0.0219702
2112.95	-0.000772977	0.0206006
2304.95	-0.000811126	0.0196695
2496.95	-0.000849274	0.0191513
2688.95	-0.0008302	0.0187468
2880.95	-0.000887422	0.018205
3072.95	-0.00092557	0.0177422
3264.95	-0.000887422	0.0173072
3456.95	-0.000582236	0.016858
3648.95	-0.00102094	0.0166236
3840.95	-0.000868348	0.0162426
4032.95	-0.000792052	0.0158953
4224.95	-0.00100187	0.0155133
4416.95	-0.000677607	0.0152669
4608.95	-0.000849274	0.0148998
4800.95	-0.000696681	0.0146825
4992.95	-0.000753903	0.0144111
5184.95	-0.000849274	0.0141107
5376.95	-0.000734829	0.0139787
5568.95	-0.0008302	0.0137903
5760.95	-0.00092557	0.0134334
5952.95	-0.000849274	0.0133276
6144.95	-0.000944644	0.0131669
6336.95	-0.0008302	0.0127731
6528.95	-0.00102094	0.0127291
6720.95	-0.000753903	0.0125959
6912.95	-0.00092557	0.0123719
7104.95	-0.000772977	0.0121625
7296.95	-0.000753903	0.0120073
7488.95	-0.000849274	0.0118419
7680.95	-0.000887422	0.0117846
7872.95	-0.000792052	0.0115946
8064.95	-0.0008302	0.0115563
8256.95	-0.000906496	0.0112718
8448.95	-0.00104001	0.0110833
8640.95	-0.000906496	0.0109983
8832.95	-0.000887422	0.0109111
9024.95	-0.000601311	0.0107474
9216.95	-0.000753903	0.0105527
9408.95	-0.000944644	0.0104523
9600.95	-0.000906496	0.0104641
9792.95	-0.000906496	0.0103124
9984.95	-0.000906496	0.0102952
10177	-0.000811126	0.0100644
10369	-0.0008302	0.0100543
10561	-0.000868348	0.00988043
10753	-0.000811126	0.00975524
10945	-2.00079	-22.0649
11137	-2.00083	-20.3689
11329	-2.00094	-20.015
11521	-2.00081	-20.0554
11713	-0.000734829	10.8016
11905	-0.00092557	0.417084
12097	-0.000811126	0.179249
12289	-0.000772977	0.111401
12481	-0.00102094	0.0803823
12673	-0.000906496	0.0630777
12865	-0.000849274	0.0520378
13057	-0.000849274	0.0441007
13249	-0.00092557	0.0384656
13441	-0.000963718	0.0343572
13633	-0.000792052	0.0309969
13825	-0.000849274	0.0282882
14017	-0.000887422	0.0261354
14209	-0.000849274	0.024295
14401	-0.000811126	0.0225892
14593	-0.000811126	0.0222794
14785	-0.000849274	0.0209474
14977	-0.000792052	0.019751
15169	-0.000944644	0.0187158
15361	-0.000792052	0.0176463
15553	-0.000696681	0.0169396
15745	-0.000811126	0.0162096
15937	-0.00092557	0.0155067
16129	-0.000868348	0.0148761
16321	-0.000734829	0.0142826
16513	-0.000677607	0.0138027
16705	-0.000906496	0.0133774
16897	-0.00104001	0.0128741
17089	-0.000734829	0.0124218
17281	-0.000563162	0.0121092
17473	-0.000963718	0.0117848
17665	-0.00092557	0.0113739
17857	-0.00107816	0.0111807
18049	-0.000849274	0.0110462
18241	-0.00100187	0.0107054
18433	-0.000849274	0.0105072
18625	-0.000906496	0.0102548
18817	-0.000811126	0.0100579
19009	-0.000887422	0.00987194
19201	-0.000982793	0.00967978
19393	-0.000906496	0.00943281
19585	-0.00100187	0.00927891
19777	-0.00100187	0.00912292
19969	-0.000868348	0.00892059
20161	-0.000811126	0.00876703
20353	-0.000620385	0.00863539
20545	-0.000696681	0.00852353
20737	-0.000982793	0.00840224
20929	-0.000715755	0.00820483
21121	-0.000753903	0.00808074
21313	-0.000715755	0.00802583
21505	-0.000868348	0.00792963
21697	-0.000887422	0.00765632
21889	-0.000753903	0.00758326
22081	-0.00092557	0.00760073
22273	-0.000982793	0.00747087
22465	-0.000811126	0.00731931
22657	-0.000696681	0.0073243
22849	-0.000944644	0.00717876
23041	-0.0008302	0.00706137
23233	-0.000868348	0.00692912
23425	-0.00100187	0.00690869
23617	-0.00092557	0.0066522
23809	-0.000868348	0.006783
24001	-0.000792052	0.00666114
24193	-0.000849274	0.00661325
24385	-0.000792052	0.00651305
24577	-0.000887422	0.00645731
24769	-0.000811126	0.00633362
24961	-0.000753903	0.00632214
25153	-0.000963718	0.00620217
25345	-2.00098	-9.34654
25537	-2.00086	-8.70575
25729	-2.00081	-8.72753
25921	-2.00098	-8.87743
26113	-0.000658533	9.66519
26305	-0.000792052	0.375611
26497	-0.000944644	0.156209
26689	-0.000658533	0.0975745
26881	-0.000734829	0.0710917
27073	-0.000544088	0.0563225
27265	-0.000734829	0.0464767
27457	-0.000868348	0.0398535
27649	-0.000658533	0.0350946
27841	-0.000906496	0.0312796
28033	-0.000792052	0.0283954
28225	-0.000772977	0.0260805
28417	-0.000963718	0.0240433
28609	-0.000792052	0.0224462
28801	-0.000944644	0.0210426
28993	-0.000811126	0.0204404
29185	-0.00092557	0.0192179
29377	-0.000811126	0.0181487
29569	-0.000811126	0.017105
29761	-0.000772977	0.0162333
29953	-0.000849274	0.0155293
30145	-0.00092557	0.0147866
30337	-0.00104001	0.0142498
30529	-0.000696681	0.0137413
30721	-0.000887422	0.0133395
30913	-0.00092557	0.0129411
31105	-0.000887422	0.0125564
31297	-0.000944644	0.0120217
31489	-0.0008302	0.0118176
31681	-0.000772977	0.0114876
31873	-0.000849274	0.0111513
32065	-0.000715755	0.0109193
32257	-0.000734829	0.010661
32449	-0.00111631	0.0103704
32641	-0.000906496	0.0102179
32833	-0.0008302	0.00992985
33025	-0.000772977	0.00971686
33217	-0.000868348	0.00958909
33409	-0.000944644	0.00937789
33601	-0.000868348	0.00923971
33793	-0.000906496	0.00906474
33985	-0.000944644	0.00885985
34177	-0.000868348	0.00869926
34369	-0.000906496	0.0085558
34561	-0.000906496	0.00844281
34753	-0.000811126	0.00836561
34945	-0.000772977	0.00813576
35137	-0.000792052	0.00811734
35329	-0.000906496	0.00801474
35521	-0.000887422	0.0078371
35713	-0.000849274	0.00773258
35905	-0.00092557	0.00759588
36097	-0.000887422	0.00752422
36289	-0.000944644	0.00740562
36481	-0.000734829	0.00736592
36673	-0.000811126	0.00721129
36865	-0.000887422	0.00708465
37057	-0.000963718	0.00707633
37249	-0.000715755	0.00685054
37441	-0.000868348	0.00693821
37633	-0.000811126	0.00671614
37825	-0.000944644	0.00666698
38017	-0.0008302	0.00659066
38209	-0.000849274	0.00666808
38401	-0.000868348	0.00636776
38593	-0.000963718	0.00644716
38785	-0.000906496	0.00640988
38977	-0.000849274	0.00629638
39169	-0.000868348	0.00624553
39361	-0.00092557	0.00619516
39553	-0.000772977	0.0060861
39745	-2.00081	-5.52762
39937	-2.0009	-5.64448
40129	-2.0009	-5.99347
40321	-2.001	-6.27993
40513	-0.00092557	9.33558
40705	-0.000849274	0.366616
40897	-0.000792052	0.153351
41089	-0.000963718	0.0957474
41281	-0.000887422	0.0700988
41473	-0.000868348	0.0555628
41665	-0.000944644	0.0460695
41857	-0.000734829	0.0396099
42049	-0.000849274	0.0347261
42241	-0.000849274	0.031095
42433	-0.000849274	0.0281612
42625	-0.00100187	0.02576
42817	-0.000792052	0.0237849
43009	-0.000753903	0.0222382
43201	-0.000715755	0.0206937
43393	-0.0008302	0.020126
43585	-0.000772977	0.0189871
43777	-0.000906496	0.017807
43969	-0.000906496	0.0167918
44161	-0.000620385	0.0160563
44353	-0.000849274	0.0152363
44545	-0.000849274	0.0146156
44737	-0.00092557	0.0140925
44929	-0.000772977	0.0134788
45121	-0.000811126	0.0134082
45313	-0.000963718	0.0127874
45505	-0.000658533	0.0124544
45697	-0.000887422	0.0121047
45889	-0.000849274	0.011716
46081	-0.000792052	0.0114038
46273	-0.000696681	0.011122
46465	-0.000696681	0.0108656
46657	-0.000753903	0.0106317
46849	-0.000944644	0.0103396
47041	-0.00092557	0.0101408
47233	-0.000715755	0.00983103
47425	-0.000792052	0.00971068
47617	-0.000906496	0.00950874
47809	-0.000868348	0.00935475
48001	-0.000887422	0.00912592
48193	-0.000792052	0.0089598
48385	-0.000772977	0.00888322
48577	-0.000772977	0.00864718
48769	-0.000715755	0.00862239
48961	-0.000792052	0.00842403
49153	-0.000772977	0.00820358
49345	-0.0008302	0.00824174
49537	-0.000906496	0.00796005
49729	-0.00100187	0.00767029
49921	-0.000868348	0.0078056
50113	-0.000906496	0.0076944
50305	-0.000696681	0.0075189
50497	-0.00092557	0.0072867
50689	-0.000868348	0.00736851
50881	-0.00092557	0.0072348
51073	-0.000792052	0.00710058
51265	-0.000868348	0.00707171
51457	-0.000582236	0.00704694
51649	-0.000811126	0.00695795
51841	-0.0008302	0.00678036
52033	-0.000963718	0.00685916
52225	-0.0008302	0.00660429
52417	-0.000849274	0.00659077
52609	-0.000792052	0.00655624
52801	-0.000734829	0.00636071
52993	-0.000639459	0.00631895
53185	-0.00102094	0.00631581
53377	-0.000906496	0.00622841
53569	-0.000887422	0.00615162
53761	-0.000982793	0.00611315
53953	-0.0008302	0.00604539
54145	-2.00079	-5.3946
54337	-2.00077	-5.62011
54529	-2.0009	-5.99424
54721	-2.00094	-6.28116
54913	-0.000887422	9.11618
55105	-0.000868348	0.344863
55297	-0.000868348	0.144296
55489	-0.000639459	0.0902236
55681	-0.000715755	0.0657911
55873	-0.000753903	0.0520913
56065	-0.000792052	0.0430196
56257	-0.000753903	0.0369479
56449	-0.000906496	0.0324579
56641	-0.000868348	0.028942
56833	-0.000944644	0.0261982
57025	-0.0008302	0.0240595
57217	-0.000563162	0.0223053
57409	-0.000944644	0.020638
57600	-0.000887422	0.0194515