Folder: Nickel_Dithiolene_Research_Experimental_Data/Data_26_Experiment

Note: README.md
# Nickel_Dithiolene_Research_Experimental_Data
Init_Data
This is a data repository that support the findings in the manuscript "Electrochemically Modulated Separation of Olefin-Paraffin Gas Mixtures in Membrane Electrode Assemblies". All uploaded codes use Matlab software version 2022A or above. All codes can be run on operating system windows 10 or above on any PC with sufficient memory to run Matlab. Refer to the System Requirements Page for Matlab at https://www.mathworks.com/support/requirements/matlab-system-requirements.html for further information.

On matlab, run the script "Graph_Results_Summary_v01" to plot all relevant graphs that are shown in the main manuscript. Further details including Gas Chromatographs of all experimental recordings can be found in individual numbered data folder. To find the appropriate data folder, refer to the excel spreadsheet "Result_Summary" which contains tables of summary data. Each column is labeled by the data folder number to which it pertains to.

In each data folder, it contains all appropriate raw chromatograph data from the MIcro GC 990 as ASCII file in "Compiled_Data" folder. Matlab codes used to analyze the gas chromatographs and chronoamperometry data are also included in each numbered data folder. To output and analyze the raw chromatograph data, run the script "Micro_GC_990_Data_Spreadsheet_Summary_v01". Be sure to edit the path_address within the Matlab script to direct the code to analyze the raw files from the appropriate address in your computer (e.g. C:\Users\Default\Documents\Compiled_Data\). To output the graphs shown in the Supplementary Information, run the script MEA_Experimental_Result_v01. Raw Chronoamperometry data (as text file) from the Potentiostat is included in each numbered data folder.

File: CA_254_C01.txt
time/s	Ewe/V	<I>/mA
1	2.49935	964.458
193	2.4993	41.6354
385	2.49918	26.4288
577	2.49924	27.874
769	2.49895	30.7843
961	2.49922	32.7853
1153	2.49933	34.0328
1345	2.49933	34.4669
1537	2.49922	33.3692
1729	2.4992	30.5602
1920.95	-0.000975655	-0.853935
2112.95	-0.000918433	-0.345328
2304.95	-0.000727692	-0.37068
2496.95	-0.000918433	-0.365415
2688.95	-0.000899359	-0.370462
2880.95	-0.000899359	-0.375281
3072.95	-0.000918433	-0.385994
3264.95	-0.000994729	-0.378614
3456.95	-0.0010138	-0.374182
3648.95	-0.000899359	-0.373786
3840.95	-0.000956581	-0.36992
4032.95	-0.000880284	-0.359995
4224.95	-0.000918433	-0.361358
4416.95	-0.000899359	-0.351781
4608.95	-0.000918433	-0.340409
4800.95	-0.000746766	-0.329077
4992.95	-0.000880284	-0.326827
5184.95	-0.000803988	-0.310042
5376.95	-0.000746766	-0.298723
5568.95	-0.000956581	-0.295475
5760.95	-0.000899359	-0.278533
5952.95	-0.000975655	-0.274777
6144.95	-0.000899359	-0.254358
6336.95	-0.000880284	-0.2384
6528.95	-0.000842136	-0.237107
6720.95	-0.000937507	-0.239102
6912.95	-0.000899359	-0.213588
7104.95	-0.000727692	-0.212894
7296.95	-0.000842136	-0.189432
7488.95	-0.000803988	-0.182424
7680.95	-0.000842136	-0.167266
7872.95	-0.00086121	-0.161744
8064.95	-0.000784914	-0.156874
8256.95	-0.00086121	-0.143474
8448.95	-0.000803988	-0.138569
8640.95	-0.000975655	-0.135898
8832.95	-0.000842136	-0.11933
9024.95	-0.000823062	-0.1105
9216.95	-0.000842136	-0.108053
9408.95	-0.000899359	-0.0947561
9600.95	-0.000746766	-0.0875648
9792.95	-0.000880284	-0.0862331
9984.95	-0.00076584	-0.0723699
10177	-0.000823062	-0.0796908
10369	-0.000746766	-0.0772583
10561	-0.000975655	-0.0577264
10753	-0.000937507	-0.059509
10945	-2.00076	-25.4301
11137	-2.00089	-13.6676
11329	-2.00085	-9.85851
11521	-2.00103	-8.00214
11713	-0.000858668	10.6578
11905	-0.000954038	0.453684
12097	-0.000744223	0.314141
12289	-0.00101126	0.250279
12481	-0.00103033	0.210629
12673	-0.000896816	0.186323
12865	-0.00091589	0.164109
13057	-0.00110663	0.148346
13249	-0.000992187	0.143816
13441	-0.000877742	0.13124
13633	-0.00101126	0.123811
13825	-0.00091589	0.122398
14017	-0.000954038	0.114102
14209	-0.000877742	0.108393
14401	2.49918	499.266
14593	2.49911	34.0853
14785	2.49914	23.6612
14977	2.49912	24.5827
15169	2.49916	27.7239
15361	2.49914	27.7325
15553	2.49914	27.789
15745	2.4992	27.7594
15937	2.49916	27.8701
16129	2.4993	27.5917
16321	-0.00086121	-0.793562
16513	-0.000975655	-0.406628
16705	-0.000880284	-0.40563
16897	-0.00086121	-0.422896
17089	-0.000803988	-0.419538
17281	-0.00086121	-0.420726
17473	-0.000880284	-0.418402
17665	-0.000803988	-0.402468
17857	-0.000823062	-0.388077
18049	-0.000956581	-0.371003
18241	-0.00086121	-0.363347
18433	-0.000975655	-0.341057
18625	-0.000842136	-0.334354
18817	-0.000823062	-0.313225
19009	-0.000937507	-0.303869
19201	-0.000975655	-0.291962
19393	-0.00086121	-0.283858
19585	-0.000899359	-0.259174
19777	-0.000937507	-0.249819
19969	-0.000937507	-0.232042
20161	-0.000823062	-0.220038
20353	-0.000937507	-0.219686
20545	-0.000823062	-0.206559
20737	-0.000956581	-0.195178
20929	-0.000727692	-0.184863
21121	-0.000937507	-0.167199
21313	-0.000823062	-0.16056
21505	-0.000918433	-0.153509
21697	-0.000918433	-0.141954
21889	-0.000937507	-0.133478
22081	-0.000994729	-0.135959
22273	-0.000880284	-0.128373
22465	-0.000746766	-0.125477
22657	-0.00086121	-0.104414
22849	-0.000823062	-0.100274
23041	-0.000880284	-0.0924778
23233	-0.000842136	-0.0847094
23425	-0.000937507	-0.0795299
23617	-0.000842136	-0.077395
23809	-0.000918433	-0.0698099
24001	-0.000880284	-0.0612347
24193	-0.000918433	-0.0554011
24385	-0.000823062	-0.0486104
24577	-0.000651395	-0.048569
24769	-0.000784914	-0.0446621
24961	-0.000918433	-0.042806
25153	-0.000918433	-0.0407588
25345	-2.00091	-16.8553
25537	-2.00097	-10.9349
25729	-2.00084	-9.28715
25921	-2.00085	-8.26327
26113	-0.000858668	12.6442
26305	-0.000934964	0.496511
26497	-0.000973113	0.324927
26689	-0.00091589	0.250847
26881	-0.000896816	0.222704
27073	-0.000934964	0.189721
27265	-0.00104941	0.170622
27457	-0.000877742	0.159554
27649	-0.000896816	0.144697
27841	-0.000858668	0.134765
28033	-0.000954038	0.126912
28225	-0.000839594	0.119068
28417	-0.00091589	0.114425
28609	-0.000763297	0.109231
28801	2.49909	293.309
28993	2.49903	31.3938
29185	2.49912	29.0463
29377	2.49912	29.3311
29569	2.49911	28.6837
29761	2.49918	27.2419
29953	2.49918	26.2979
30145	2.49926	26.1899
30337	2.49914	26.8675
30529	2.49912	27.4813
30721	-0.00076584	-0.752794
30913	-0.000899359	-0.424268
31105	-0.00086121	-0.453108
31297	-0.000918433	-0.459523
31489	-0.000880284	-0.448839
31681	-0.000803988	-0.457901
31873	-0.000899359	-0.443252
32065	-0.000784914	-0.436173
32257	-0.000899359	-0.43351
32449	-0.000937507	-0.409817
32641	-0.00086121	-0.400223
32833	-0.000918433	-0.392046
33025	-0.00076584	-0.363158
33217	-0.000975655	-0.345273
33409	-0.000899359	-0.33536
33601	-0.000842136	-0.324122
33793	-0.000823062	-0.299041
33985	-0.000784914	-0.284724
34177	-0.000880284	-0.275663
34369	-0.000937507	-0.261184
34561	-0.000918433	-0.251451
34753	-0.000937507	-0.237043
34945	-0.000899359	-0.225294
35137	-0.000784914	-0.21905
35329	-0.000823062	-0.211457
35521	-0.000918433	-0.195571
35713	-0.00076584	-0.187925
35905	-0.000975655	-0.180405
36097	-0.000880284	-0.165229
36289	-0.000937507	-0.156936
36481	-0.000975655	-0.151534
36673	-0.000823062	-0.144021
36865	-0.000842136	-0.136191
37057	-0.000784914	-0.128923
37249	-0.000842136	-0.119266
37441	-0.000746766	-0.114209
37633	-0.000842136	-0.108898
37825	-0.000746766	-0.103615
38017	-0.000842136	-0.0985653
38209	-0.000803988	-0.0913055
38401	-0.000823062	-0.0851332
38593	-0.00086121	-0.0798061
38785	-0.000803988	-0.0780091
38977	-0.000937507	-0.0710004
39169	-0.000899359	-0.0672104
39361	-0.000956581	-0.0620202
39553	-0.000823062	-0.0571284
39745	-2.00143	-16.8731
39937	-2.00126	-9.82269
40129	-2.00139	-8.08708
40321	-2.00115	-7.42762
40513	-0.000958821	14.5425
40705	-0.000958821	0.472409
40897	-0.000958821	0.30465
41089	-0.000825302	0.24383
41281	-0.000977895	0.202428
41473	-0.000939746	0.175911
41665	-0.00105419	0.155171
41857	-0.000939746	0.138394
42049	-0.000825302	0.132745
42241	-0.000920672	0.115999
42433	-0.000787154	0.111104
42625	-0.000939746	0.106019
42817	-0.000958821	0.0987376
43009	-0.000958821	0.0945401
43201	2.4992	235.377
43393	2.49907	33.2445
43585	2.4992	27.4275
43777	2.49914	26.5469
43969	2.49924	26.6835
44161	2.4992	26.8956
44353	2.49918	27.5306
44545	2.49924	27.9889
44737	2.49911	28.4242
44929	2.49926	28.7623
45121	-0.000803988	-0.744874
45313	-0.000880284	-0.346006
45505	-0.000918433	-0.281444
45697	-0.000823062	-0.268124
45889	-0.000842136	-0.284731
46081	-0.000918433	-0.302936
46273	-0.000918433	-0.312265
46465	-0.00086121	-0.32287
46657	-0.000842136	-0.331143
46849	-0.00086121	-0.334821
47041	-0.000842136	-0.317649
47233	-0.000994729	-0.316045
47425	-0.000937507	-0.308967
47617	-0.00086121	-0.287747
47809	-0.000899359	-0.279065
48001	-0.000937507	-0.28092
48193	-0.000918433	-0.262483
48385	-0.00076584	-0.259446
48577	-0.000842136	-0.249638
48769	-0.000918433	-0.235338
48961	-0.000803988	-0.227035
49153	-0.000803988	-0.220491
49345	-0.000823062	-0.211519
49537	-0.000994729	-0.204486
49729	-0.000803988	-0.193235
49921	-0.000842136	-0.181335
50113	-0.000842136	-0.179806
50305	-0.000842136	-0.166124
50497	-0.00076584	-0.156361
50689	-0.000918433	-0.152172
50881	-0.000899359	-0.14328
51073	-0.000880284	-0.136361
51265	-0.000956581	-0.130214
51457	-0.000803988	-0.121771
51649	-0.000880284	-0.119249
51841	-0.000956581	-0.111263
52033	-0.000880284	-0.102102
52225	-0.000956581	-0.099561
52417	-0.000956581	-0.0932151
52609	-0.0010138	-0.0843812
52801	-0.000937507	-0.0829068
52993	-0.000937507	-0.0813004
53185	-0.000784914	-0.074446
53377	-0.000937507	-0.0699883
53569	-0.000956581	-0.0649453
53761	-0.000937507	-0.0601454
53953	-0.000727692	-0.0567915
54145	-2.00111	-17.7555
54337	-2.00132	-9.07127
54529	-2.00122	-7.59722
54721	-2.00134	-6.83299
54913	-0.00086345	15.0912
55105	-0.000882524	0.479534
55297	-0.000977895	0.308086
55489	-0.000939746	0.244804
55681	-0.000958821	0.202964
55873	-0.000729932	0.170463
56065	-0.000768079	0.154746
56257	-0.000920672	0.135957
56449	-0.000901598	0.125391
56641	-0.000920672	0.116341
56833	-0.000977895	0.106836
57025	-0.000882524	0.0994792
57217	-0.000958821	0.095188
57409	-0.00086345	0.0887784
57600	-0.00086345	0.084374