Folder: Nickel_Dithiolene_Research_Experimental_Data/Data_24_Experiment

Note: README.md
# Nickel_Dithiolene_Research_Experimental_Data
Init_Data
This is a data repository that support the findings in the manuscript "Electrochemically Modulated Separation of Olefin-Paraffin Gas Mixtures in Membrane Electrode Assemblies". All uploaded codes use Matlab software version 2022A or above. All codes can be run on operating system windows 10 or above on any PC with sufficient memory to run Matlab. Refer to the System Requirements Page for Matlab at https://www.mathworks.com/support/requirements/matlab-system-requirements.html for further information.

On matlab, run the script "Graph_Results_Summary_v01" to plot all relevant graphs that are shown in the main manuscript. Further details including Gas Chromatographs of all experimental recordings can be found in individual numbered data folder. To find the appropriate data folder, refer to the excel spreadsheet "Result_Summary" which contains tables of summary data. Each column is labeled by the data folder number to which it pertains to.

In each data folder, it contains all appropriate raw chromatograph data from the MIcro GC 990 as ASCII file in "Compiled_Data" folder. Matlab codes used to analyze the gas chromatographs and chronoamperometry data are also included in each numbered data folder. To output and analyze the raw chromatograph data, run the script "Micro_GC_990_Data_Spreadsheet_Summary_v01". Be sure to edit the path_address within the Matlab script to direct the code to analyze the raw files from the appropriate address in your computer (e.g. C:\Users\Default\Documents\Compiled_Data\). To output the graphs shown in the Supplementary Information, run the script MEA_Experimental_Result_v01. Raw Chronoamperometry data (as text file) from the Potentiostat is included in each numbered data folder.

File: CA_259_C01.txt
time/s	Ewe/V	<I>/mA
1	1.49951	412.022
193	1.49941	38.1525
385	1.49964	19.8981
577	1.49949	15.7211
769	1.4994	14.126
961	1.49938	12.8115
1153	1.49966	11.3389
1345	1.49945	9.76557
1537	1.49949	8.18295
1729	1.49953	6.82531
1920.95	-0.00103033	-0.257378
2112.95	-0.000954038	-0.175126
2304.95	-0.000839594	-0.158017
2496.95	-0.000992187	-0.141411
2688.95	-0.000839594	-0.122147
2880.95	-0.000896816	-0.104763
3072.95	-0.000839594	-0.0922124
3264.95	-0.000877742	-0.0818862
3456.95	-0.00091589	-0.07252
3648.95	-0.000896816	-0.0690067
3840.95	-0.000877742	-0.0618698
4032.95	-0.00091589	-0.0550272
4224.95	-0.000896816	-0.0500316
4416.95	-0.000992187	-0.0425822
4608.95	-0.000973113	-0.038239
4800.95	-0.00104941	-0.0316792
4992.95	-0.00091589	-0.025202
5184.95	-0.000896816	-0.0182344
5376.95	-0.000877742	-0.0134716
5568.95	-0.000934964	-0.0105445
5760.95	-0.000973113	-0.0044216
5952.95	-0.000744223	0.000146541
6144.95	-0.00106848	0.00189663
6336.95	-0.000973113	0.00587857
6528.95	-0.00091589	0.0117997
6720.95	-0.000877742	0.0124401
6912.95	-0.00091589	0.0162258
7104.95	-0.000896816	0.0209026
7296.95	-0.00091589	0.0191883
7488.95	-0.000877742	0.0228582
7680.95	-0.00091589	0.0249715
7872.95	-0.000954038	0.0249734
8064.95	-0.00101126	0.0297492
8256.95	-0.000973113	0.0316824
8448.95	-0.000954038	0.0333467
8640.95	-0.00103033	0.035058
8832.95	-0.000973113	0.0370318
9024.95	-0.00110663	0.0378173
9216.95	-0.00082052	0.0378288
9408.95	-0.000992187	0.0395012
9600.95	-0.000877742	0.0395657
9792.95	-0.00104941	0.0386821
9984.95	-0.000896816	0.0368109
10177	-0.000992187	0.037437
10369	-0.000992187	0.0370497
10561	-0.000896816	0.0360187
10753	-0.000858668	0.0361259
10945	-2.00099	-20.2512
11137	-2.00085	-8.20645
11329	-2.00093	-5.11908
11521	-2.00091	-3.80824
11713	-0.000877742	9.39907
11905	-0.00091589	0.486222
12097	-0.000973113	0.335244
12289	-0.000973113	0.278517
12481	-0.00103033	0.25117
12673	-0.000954038	0.222054
12865	-0.000877742	0.207215
13057	-0.00106848	0.199183
13249	-0.000858668	0.184575
13441	-0.00106848	0.17746
13633	-0.000763297	0.173872
13825	-0.00091589	0.164465
14017	-0.00108756	0.159679
14209	-0.00112571	0.157465
14401	1.49951	203.996
14593	1.4994	7.78398
14785	1.49936	6.81628
14977	1.49945	6.96991
15169	1.49938	6.93999
15361	1.49968	6.76488
15553	1.49953	6.65491
15745	1.49943	6.32039
15937	1.49966	5.90262
16129	1.49941	5.50045
16321	-0.00082052	-0.184571
16513	-0.000782372	-0.0807886
16705	-0.000934964	-0.062871
16897	-0.00103033	-0.0600883
17089	-0.000954038	-0.0578755
17281	-0.000877742	-0.0543905
17473	-0.000877742	-0.0528773
17665	-0.000896816	-0.0504534
17857	-0.000858668	-0.0458646
18049	-0.000782372	-0.0423515
18241	-0.000992187	-0.038476
18433	-0.000877742	-0.0345514
18625	-0.000992187	-0.0314317
18817	-0.000858668	-0.027875
19009	-0.000896816	-0.0238258
19201	-0.00101126	-0.0228906
19393	-0.000801446	-0.0185862
19585	-0.000839594	-0.0160567
19777	-0.00091589	-0.0140657
19969	-0.00103033	-0.0108098
20161	-0.000992187	-0.00765873
20353	-0.000934964	-0.00622042
20545	-0.000896816	-0.00389184
20737	-0.00082052	-0.0022265
20929	-0.00101126	-0.000784919
21121	-0.000992187	0.00189418
21313	-0.000896816	0.00341562
21505	-0.000934964	0.0053777
21697	-0.00104941	0.00686937
21889	-0.000934964	0.00896411
22081	-0.000858668	0.0107017
22273	-0.000934964	0.0114907
22465	-0.000839594	0.0129094
22657	-0.000934964	0.0147983
22849	-0.000896816	0.015111
23041	-0.000763297	0.0160304
23233	-0.000934964	0.0178163
23425	-0.00103033	0.017876
23617	-0.000934964	0.0193674
23809	-0.000896816	0.0210936
24001	-0.000954038	0.0205465
24193	-0.000896816	0.0217019
24385	-0.000954038	0.0235097
24577	-0.00082052	0.0227321
24769	-0.000858668	0.0233054
24961	-0.000877742	0.0249823
25153	-0.00106848	0.0242786
25345	-2.00074	-11.8376
25537	-2.00093	-5.11688
25729	-2.00076	-3.37475
25921	-2.00095	-2.60535
26113	-0.00082052	10.4989
26305	-0.000973113	0.460922
26497	-0.00110663	0.313446
26689	-0.000896816	0.255725
26881	-0.000992187	0.21779
27073	-0.000934964	0.193122
27265	-0.000954038	0.176673
27457	-0.000763297	0.16324
27649	-0.000954038	0.152427
27841	-0.00101126	0.14516
28033	-0.00101126	0.139096
28225	-0.000992187	0.132773
28417	-0.000954038	0.128513
28609	-0.000896816	0.125844
28801	1.49945	127.538
28993	1.49945	6.54971
29185	1.49947	5.4952
29377	1.49941	5.17363
29569	1.49951	4.77192
29761	1.49951	4.3431
29953	1.49945	3.94281
30145	1.49957	3.31436
30337	1.49947	2.89383
30529	1.4994	2.45587
30721	-0.000896816	-0.129494
30913	-0.000896816	-0.0379208
31105	-0.000954038	-0.0181688
31297	-0.000801446	-0.0103929
31489	-0.000877742	-0.00642554
31681	-0.000934964	-0.00475844
31873	-0.000954038	-0.00325273
32065	-0.000954038	-0.000979214
32257	-0.000858668	-0.000341108
32449	-0.000934964	0.00120822
32641	-0.00082052	0.0029671
32833	-0.00101126	0.00335722
33025	-0.00091589	0.00506229
33217	-0.000896816	0.00680865
33409	-0.000973113	0.00748175
33601	-0.000934964	0.00865557
33793	-0.000858668	0.00982408
33985	-0.000934964	0.0106675
34177	-0.000877742	0.0111615
34369	-0.00082052	0.0120343
34561	-0.000858668	0.0127086
34753	-0.000954038	0.0130812
34945	-0.000896816	0.0139428
35137	-0.000934964	0.015135
35329	-0.000877742	0.0149128
35521	-0.000954038	0.0155777
35713	-0.000992187	0.0163819
35905	-0.000934964	0.0160966
36097	-0.00103033	0.016541
36289	-0.000992187	0.0175725
36481	-0.00101126	0.0173371
36673	-0.000934964	0.0177686
36865	-0.00103033	0.0186574
37057	-0.000954038	0.0180222
37249	-0.000954038	0.0183259
37441	-0.000896816	0.0189777
37633	-0.00091589	0.018519
37825	-0.000992187	0.0188432
38017	-0.000896816	0.0192305
38209	-0.00106848	0.0189662
38401	-0.00103033	0.0192891
38593	-0.00104941	0.019461
38785	-0.00091589	0.0193415
38977	-0.000839594	0.0193691
39169	-0.00091589	0.0197107
39361	-0.00104941	0.0196554
39553	-0.000973113	0.0194777
39745	-2.00089	-8.9681
39937	-2.00084	-4.12746
40129	-2.00089	-2.79799
40321	-2.00087	-2.20226
40513	-0.000896816	10.2323
40705	-0.000858668	0.431431
40897	-0.000801446	0.287448
41089	-0.000973113	0.233976
41281	-0.000877742	0.197288
41473	-0.000973113	0.174341
41665	-0.00106848	0.159014
41857	-0.00091589	0.143262
42049	-0.000992187	0.133071
42241	-0.000877742	0.126125
42433	-0.000973113	0.117335
42625	-0.000934964	0.111969
42817	-0.00103033	0.108669
43009	-0.000877742	0.102872
43201	1.49959	103.78
43393	1.49953	6.14627
43585	1.49957	4.70648
43777	1.49955	3.50201
43969	1.49951	2.75313
44161	1.49951	2.36895
44353	1.49949	2.09286
44545	1.49945	1.93984
44737	1.49949	1.96306
44929	1.49945	1.83323
45121	-0.000934964	-0.121946
45313	-0.000896816	-0.0285914
45505	-0.00104941	-0.010388
45697	-0.000839594	-0.00287448
45889	-0.000973113	0.0016749
46081	-0.000934964	0.00422346
46273	-0.000954038	0.0063757
46465	-0.00091589	0.00823579
46657	-0.000973113	0.00921626
46849	-0.000782372	0.010042
47041	-0.00091589	0.0112855
47233	-0.000954038	0.011544
47425	-0.000934964	0.0118879
47617	-0.000896816	0.0129399
47809	-0.00104941	0.012726
48001	-0.000973113	0.0130974
48193	-0.00106848	0.013796
48385	-0.00104941	0.0135328
48577	-0.000934964	0.0139406
48769	-0.000973113	0.0145043
48961	-0.000839594	0.0142589
49153	-0.000858668	0.014304
49345	-0.00091589	0.0147501
49537	-0.000877742	0.0145096
49729	-0.000896816	0.0147341
49921	-0.000877742	0.0150464
50113	-0.000973113	0.0148801
50305	-0.000973113	0.0149151
50497	-0.000954038	0.0151258
50689	-0.000896816	0.0150197
50881	-0.00082052	0.0149409
51073	-0.00082052	0.0150884
51265	-0.000934964	0.0150432
51457	-0.000934964	0.0149078
51649	-0.000973113	0.0148399
51841	-0.000896816	0.014901
52033	-0.00091589	0.0147049
52225	-0.000992187	0.0147806
52417	-0.000992187	0.0150193
52609	-0.00101126	0.0148067
52801	-0.000896816	0.0146603
52993	-0.000896816	0.0148853
53185	-0.000801446	0.0146033
53377	-0.000877742	0.0144075
53569	-0.00091589	0.0147345
53761	-0.000954038	0.0143048
53953	-0.000934964	0.0142667
54145	-2.00089	-6.35458
54337	-2.00093	-3.15342
54529	-2.00093	-2.28697
54721	-2.00093	-1.89076
54913	-0.000954038	9.86015
55105	-0.000954038	0.391441
55297	-0.00101126	0.251027
55489	-0.000934964	0.196489
55681	-0.000992187	0.166541
55873	-0.000954038	0.146602
56065	-0.000801446	0.129701
56257	-0.00104941	0.117889
56449	-0.000896816	0.108893
56641	-0.000992187	0.10007
56833	-0.00101126	0.0932804
57025	-0.00082052	0.087747
57217	-0.00101126	0.0824052
57409	-0.00091589	0.0779039
57600	-0.00103033	0.074615