Folder: Nickel_Dithiolene_Research_Experimental_Data/Data_30_Experiment

Note: README.md
# Nickel_Dithiolene_Research_Experimental_Data
Init_Data
This is a data repository that support the findings in the manuscript "Electrochemically Modulated Separation of Olefin-Paraffin Gas Mixtures in Membrane Electrode Assemblies". All uploaded codes use Matlab software version 2022A or above. All codes can be run on operating system windows 10 or above on any PC with sufficient memory to run Matlab. Refer to the System Requirements Page for Matlab at https://www.mathworks.com/support/requirements/matlab-system-requirements.html for further information.

On matlab, run the script "Graph_Results_Summary_v01" to plot all relevant graphs that are shown in the main manuscript. Further details including Gas Chromatographs of all experimental recordings can be found in individual numbered data folder. To find the appropriate data folder, refer to the excel spreadsheet "Result_Summary" which contains tables of summary data. Each column is labeled by the data folder number to which it pertains to.

In each data folder, it contains all appropriate raw chromatograph data from the MIcro GC 990 as ASCII file in "Compiled_Data" folder. Matlab codes used to analyze the gas chromatographs and chronoamperometry data are also included in each numbered data folder. To output and analyze the raw chromatograph data, run the script "Micro_GC_990_Data_Spreadsheet_Summary_v01". Be sure to edit the path_address within the Matlab script to direct the code to analyze the raw files from the appropriate address in your computer (e.g. C:\Users\Default\Documents\Compiled_Data\). To output the graphs shown in the Supplementary Information, run the script MEA_Experimental_Result_v01. Raw Chronoamperometry data (as text file) from the Potentiostat is included in each numbered data folder.

File: CA_001_C01.txt
time/s	Ewe/V	<I>/mA
1	1.49962	408.238
185	1.49955	24.2628
369	1.49957	15.4584
553	1.49943	11.5008
737	1.49938	9.11636
921	1.49941	7.5784
1105	1.49938	6.5263
1288.95	-0.000764108	0.371591
1472.95	-0.00105022	0.137405
1656.95	-0.00082133	0.0933505
1840.95	-0.000973923	0.0823632
2024.95	-0.000935775	0.0631434
2208.95	-0.000840404	0.0643801
2392.95	-0.00072596	0.0552288
2576.95	-0.00105022	0.0489048
2760.95	-0.000973923	0.0493293
2944.95	-0.000992997	0.0413297
3128.95	-0.000935775	0.0456896
3312.95	-0.00108837	0.041558
3496.95	-0.000764108	0.0390226
3680.95	-0.000916701	0.0408517
3864.95	-0.000764108	0.0365704
4048.95	-0.00101207	0.0394054
4232.95	-0.000992997	0.0371117
4416.95	-0.00110744	0.0356615
4600.95	-0.000916701	0.0368494
4784.95	-0.00105022	0.0339031
4968.95	-0.00103115	0.0361467
5152.95	-0.000878553	0.0343618
5336.95	-0.000897627	0.0334268
5520.95	-0.000878553	0.0344176
5704.95	-0.000935775	0.0323968
5888.95	-0.00106929	0.0342448
6072.95	-0.000840404	0.0332983
6256.95	-0.000783182	0.0327304
6440.95	-0.000764108	0.0336408
6624.95	-0.000973923	0.0320751
6808.95	-0.000916701	0.0333386
6992.95	-0.00072596	0.0325016
7176.95	-0.000954849	0.032392
7360.95	-0.000897627	0.0324521
7544.95	-0.00082133	0.031246
7728.95	-0.000897627	0.0317659
7912.95	-0.000687812	0.0315342
8096.95	-0.000859479	0.0313909
8280.95	-0.000802256	0.0312541
8464.95	-0.000783182	0.0303251
8648.95	-0.000916701	0.03132
8832.95	-0.000973923	0.030565
9016.95	-0.000954849	0.030605
9200.95	-0.000840404	0.0307391
9384.95	-0.00082133	0.0297905
9568.95	-0.000859479	0.0304873
9752.95	-0.00108837	0.0299371
9936.95	-0.000859479	0.0300823
10121	-0.000878553	0.0299701
10305	-2.00089	-25.2073
10489	-2.00091	-9.15246
10673	-2.00082	-5.32802
10857	-2.00086	-3.9303
11041	-2.0008	-3.1978
11225	-0.000916701	1.76169
11409	-0.000916701	1.26755
11593	-0.000859479	1.04228
11777	-0.000859479	0.920438
11961	-0.00103115	0.823359
12145	-0.000802256	0.746225
12329	-0.000973923	0.699729
12513	-0.000802256	0.635539
12697	-0.00110744	0.592124
12881	-0.00106929	0.551818
13065	-0.000897627	0.513371
13249	-0.000916701	0.48933
13433	-0.000878553	0.451742
13617	-0.000840404	0.426036
13801	1.49955	296.48
13985	1.49941	10.9592
14169	1.4996	8.47453
14353	1.49949	7.4702
14537	1.49959	6.82788
14721	1.49957	6.36558
14905	1.49957	5.96692
15089	-0.000916701	0.133752
15273	-0.00101207	0.174036
15457	-0.00082133	0.135902
15641	-0.000916701	0.118984
15825	-0.000802256	0.104726
16009	-0.000935775	0.0983909
16193	-0.000840404	0.0890322
16377	-0.000916701	0.081896
16561	-0.000954849	0.0778212
16745	-0.00105022	0.0718909
16929	-0.000878553	0.0702556
17113	-0.000935775	0.0652826
17297	-0.00101207	0.0616576
17481	-0.000992997	0.059679
17665	-0.000935775	0.0563211
17849	-0.000878553	0.0558378
18033	-0.000954849	0.0523898
18217	-0.000897627	0.0504327
18401	-0.00106929	0.04904
18585	-0.000916701	0.0470536
18769	-0.00082133	0.0472833
18953	-0.000954849	0.0446744
19137	-0.00106929	0.0435034
19321	-0.000764108	0.042567
19505	-0.000935775	0.0409813
19689	-0.00114559	0.0413779
19873	-0.000706886	0.0392689
20057	-0.000935775	0.0381068
20241	-0.000878553	0.0375034
20425	-0.000878553	0.036462
20609	-0.000897627	0.036761
20793	-0.000859479	0.0350531
20977	-0.000897627	0.0344121
21161	-0.000859479	0.0337057
21345	-0.000954849	0.03286
21529	-0.000840404	0.0333274
21713	-0.000973923	0.0318269
21897	-0.00106929	0.0312315
22081	-0.000954849	0.0307397
22265	-0.000935775	0.0299945
22449	-0.000916701	0.0304725
22633	-0.000840404	0.029103
22817	-0.000878553	0.0288416
23001	-0.000935775	0.0281097
23185	-0.000954849	0.0277392
23369	-0.00105022	0.0281683
23553	-0.000992997	0.0269703
23737	-0.00101207	0.0267481
23921	-0.000992997	0.0262754
24105	-2.00093	-16.9152
24289	-2.00066	-6.35195
24473	-2.00089	-4.05842
24657	-2.00082	-3.11261
24841	-2.00095	-2.60634
25025	-0.00106929	1.20436
25209	-0.00105022	0.783425
25393	-0.000840404	0.616995
25577	-0.000954849	0.536552
25761	-0.00101207	0.49014
25945	-0.000973923	0.448034
26129	-0.000897627	0.428364
26313	-0.00103115	0.396462
26497	-0.000878553	0.37537
26681	-0.000783182	0.360275
26865	-0.000992997	0.342336
27049	-0.00103115	0.334355
27233	-0.000859479	0.316045
27417	-0.00105022	0.303327
27601	1.49949	234.56
27785	1.49957	7.90191
27969	1.49945	6.50826
28153	1.49943	6.15275
28337	1.49949	5.87131
28521	1.4994	5.57796
28705	1.49955	5.31855
28889	-0.00112652	0.0475393
29073	-0.000992997	0.127411
29257	-0.000935775	0.106716
29441	-0.000840404	0.0975044
29625	-0.000859479	0.0874853
29809	-0.000973923	0.0817474
29993	-0.000878553	0.0748197
30177	-0.000916701	0.0693111
30361	-0.000935775	0.0664485
30545	-0.000859479	0.0621347
30729	-0.000897627	0.0606173
30913	-0.000916701	0.0563652
31097	-0.000783182	0.0539043
31281	-0.00101207	0.0523896
31465	-0.00101207	0.0505671
31649	-0.00105022	0.0496854
31833	-0.000916701	0.0467898
32017	-0.00101207	0.0450567
32201	-0.00110744	0.0438704
32385	-0.00108837	0.0421651
32569	-0.00108837	0.0420205
32753	-0.000992997	0.0398184
32937	-0.000897627	0.0383668
33121	-0.00103115	0.037529
33305	-0.000897627	0.0366247
33489	-0.000802256	0.0365671
33673	-0.000878553	0.0348967
33857	-0.00072596	0.0339645
34041	-0.000802256	0.0334124
34225	-0.000954849	0.0326594
34409	-0.000897627	0.0327574
34593	-0.000954849	0.0310031
34777	-0.000878553	0.0302634
34961	-0.000859479	0.0296223
35145	-0.000992997	0.0290936
35329	-0.000935775	0.0292177
35513	-0.000916701	0.0279138
35697	-0.00082133	0.0274163
35881	-0.000992997	0.0270439
36065	-0.00101207	0.0265113
36249	-0.000745034	0.0269273
36433	-0.00105022	0.0255719
36617	-0.000954849	0.025167
36801	-0.000992997	0.0249573
36985	-0.000840404	0.0244417
37169	-0.000878553	0.0247779
37353	-0.00112652	0.0236508
37537	-0.000878553	0.0233219
37721	-0.00101207	0.0231428
37905	-2.00095	-13.5114
38089	-2.00087	-5.34314
38273	-2.00082	-3.52916
38457	-2.00082	-2.77413
38641	-2.00089	-2.39321
38825	-0.000916701	1.01687
39009	-0.00072596	0.604871
39193	-0.000954849	0.463692
39377	-0.000802256	0.390339
39561	-0.00101207	0.352376
39745	-0.000935775	0.320894
39929	-0.000935775	0.303515
40113	-0.000878553	0.285341
40297	-0.000764108	0.271197
40481	-0.000954849	0.262654
40665	-0.000954849	0.250498
40849	-0.000802256	0.243372
41033	-0.000935775	0.233764
41217	-0.000973923	0.225359
41401	1.49959	195.839
41585	1.49945	6.94867
41769	1.49962	5.69026
41953	1.4996	5.28605
42137	1.4996	5.04781
42321	1.49943	4.67514
42505	1.49949	4.43638
42689	-0.000935775	-0.00902118
42873	-0.000897627	0.0743387
43057	-0.000783182	0.0684854
43241	-0.000802256	0.0647407
43425	-0.000992997	0.0601388
43609	-0.000840404	0.0570545
43793	-0.000878553	0.0534722
43977	-0.00105022	0.0505342
44161	-0.00082133	0.0490685
44345	-0.000916701	0.0468633
44529	-0.000706886	0.0459818
44713	-0.00101207	0.0437336
44897	-0.00105022	0.0420656
45081	-0.000878553	0.0411642
45265	-0.000840404	0.0397685
45449	-0.00082133	0.0391797
45633	-0.00082133	0.0376053
45817	-0.000802256	0.0363839
46001	-0.000840404	0.0358822
46185	-0.000916701	0.0348748
46369	-0.00101207	0.0344707
46553	-0.000954849	0.0328799
46737	-0.000973923	0.0319941
46921	-0.000935775	0.0319118
47105	-0.000916701	0.031025
47289	-0.00101207	0.030851
47473	-0.000954849	0.0297922
47657	-0.000935775	0.0293029
47841	-0.000802256	0.0290881
48025	-0.000859479	0.0282206
48209	-0.000802256	0.0282409
48393	-0.00108837	0.0271191
48577	-0.000897627	0.0265356
48761	-0.00082133	0.0264375
48945	-0.000973923	0.025627
49129	-0.000973923	0.0256618
49313	-0.000973923	0.0247544
49497	-0.000973923	0.0242302
49681	-0.00106929	0.0242617
49865	-0.000859479	0.0236789
50049	-0.000859479	0.0236675
50233	-0.00103115	0.0228711
50417	-0.000992997	0.0223126
50601	-0.000973923	0.0224662
50785	-0.000859479	0.0219983
50969	-0.000897627	0.0220955
51153	-0.00101207	0.0212794
51337	-0.000859479	0.0210268
51521	-0.000840404	0.0211517
51705	-2.00114	-11.3372
51889	-2.00091	-4.66277
52073	-2.00089	-3.16087
52257	-2.00093	-2.54332
52441	-2.00086	-2.23101
52625	-0.000973923	0.915637
52809	-0.000840404	0.515406
52993	-0.00082133	0.392836
53177	-0.000916701	0.325812
53361	-0.000916701	0.288894
53545	-0.000802256	0.257621
53729	-0.000916701	0.238678
53913	-0.000897627	0.22488
54097	-0.000840404	0.212379
54281	-0.00110744	0.204606
54465	-0.000840404	0.1928
54649	-0.00103115	0.185564
54833	-0.00082133	0.179725
55017	-0.00105022	0.173289
55200	-0.000973923	0.169017

File: CA_267_015_minutes_C01.txt
time/s	Ewe/V	<I>/mA
1	1.49949	181.829
46	1.49953	19.7529
91	1.49959	16.4222
136	1.49955	13.3459
181	1.49951	10.8142
226	1.49966	9.72623
271	1.49959	9.32554
316	1.49947	9.19769
361	1.49945	9.07724
406	1.49955	9.01234
451	1.49966	9.07268
496	1.49955	9.09688
541	1.49949	9.15353
586	1.49959	9.12373
631	1.49955	9.03629
676	1.49945	9.06071
721	1.49962	9.03326
766	1.49966	9.00108
811	1.49949	8.92482
856	1.4994	8.76275
900.952	-0.000934964	-29.5129
945.952	-0.00091589	-0.63163
990.952	-0.000858668	-0.153175
1035.95	-0.000744223	-0.0512947
1080.95	-0.000782372	-0.0156845
1125.95	-0.000839594	0.00142678
1170.95	-0.00110663	0.0117642
1215.95	-0.000858668	0.0151797
1260.95	-0.000992187	0.0157511
1305.95	-0.00091589	0.0170911
1350.95	-0.00091589	0.01571
1395.95	-0.000782372	0.0138777
1440.95	-0.000954038	0.0115675
1485.95	-0.00091589	0.00915392
1530.95	-0.000801446	0.00801517
1575.95	-0.000877742	0.00622933
1620.95	-0.00106848	0.00475008
1665.95	-0.000934964	0.00382697
1710.95	-0.000877742	0.00317871
1755.95	-0.000744223	0.00307749
1800.95	-0.000992187	0.00292379
1845.95	-0.000763297	0.00172295
1890.95	-0.000877742	0.00149668
1935.95	-0.000896816	0.00104628
1980.95	-0.000744223	0.000891802
2025.95	-0.000934964	0.00136099
2070.95	-0.00103033	0.000330901
2115.95	-0.000934964	-3.05073e-06
2160.95	-0.000877742	-0.000544725
2205.95	-0.000839594	-0.000891736
2250.95	-0.000896816	-0.000124489
2295.95	-0.000801446	-0.00065483
2340.95	-0.000763297	-0.000871809
2385.95	-0.00082052	-0.00116275
2430.95	-0.000934964	-0.00147787
2475.95	-0.000744223	-0.00109994
2520.95	-0.00103033	-0.00124473
2565.95	-0.000839594	-0.00147224
2610.95	-0.000973113	-0.00150071
2655.95	-0.000763297	-0.00170278
2700.95	-0.00101126	-0.00146853
2745.95	-0.000877742	-0.00124387
2790.95	-0.00106848	-0.00155719
2835.95	-0.000763297	-0.00153547
2880.95	-0.000877742	-0.00164076
2925.95	-0.000782372	-0.00182606
2970.95	-0.000763297	-0.00108786
3015.95	-0.000839594	-0.00116416
3060.95	-0.000954038	-0.00126233
3105.95	-0.000973113	-0.00138266
3150.95	-0.00091589	-0.00128971
3195.95	-0.000934964	-0.000700536
3240.95	-0.000801446	-0.00108191
3285.95	-0.000877742	-0.00107075
3330.95	-0.00082052	-0.000897656
3375.95	-0.000801446	-0.00094371
3420.95	-0.000992187	-0.000424046
3465.95	-0.000839594	-0.000192612
3510.95	-0.000801446	-0.000314802
3555.95	-0.000877742	-0.000232509
3600.95	-0.000801446	-0.000293406
3645.95	-0.000839594	-1.43314e-05
3690.95	-0.000725149	0.000445816
3735.95	-0.000934964	0.00033641
3780.95	-0.000934964	0.000435543
3825.95	-0.00082052	0.000208605
3870.95	-0.000954038	0.00052518
3915.95	-0.000896816	0.00106684
3960.95	-0.000896816	0.000781246
4005.95	-0.000839594	0.00093109
4050.95	-0.000877742	0.000963418
4095.95	-0.000896816	0.00101055
4140.95	-0.00104941	0.00157716
4185.95	-0.000839594	0.00155328
4230.95	-0.000992187	0.00147933
4275.95	-0.000839594	0.00164378
4320.95	-0.000858668	0.00165862
4365.95	-0.000839594	0.00207408
4410.95	-0.000934964	0.00225372
4455.95	-0.000877742	0.00187613
4500.95	-0.00104941	0.00211584
4545.95	-0.000858668	0.00224944
4590.95	-0.00091589	0.00243866
4635.95	-0.000801446	0.00288962
4680.95	-0.000858668	0.00272117
4725.95	-0.000877742	0.00278424
4770.95	-0.000858668	0.00285403
4815.95	-0.000763297	0.00286027
4860.95	-0.000801446	0.00351846
4905.95	-0.00101126	0.00329661
4950.95	-0.00103033	0.0035383
4995.95	-0.000877742	0.00344123
5040.95	-0.000954038	0.00360187
5085.95	-0.000782372	0.0041473
5130.95	-0.000858668	0.00407889
5175.95	-0.00082052	0.00403918
5220.95	-0.000934964	0.00414088
5265.95	-0.000877742	0.00404087
5310.95	-0.00091589	0.00449299
5355.95	-0.000896816	0.00472021
5400.95	-0.000954038	0.00467239
5445.95	-0.000858668	0.00472931
5490.95	-0.00101126	0.00469438
5535.95	-0.000934964	0.0048617
5580.95	-0.000896816	0.00527527
5625.95	-0.000877742	0.00511368
5670.95	-0.000934964	0.00516439
5715.95	-0.00091589	0.00502228
5760.95	-0.000877742	0.00538242
5805.95	-0.000744223	0.00566973
5850.95	-0.00082052	0.00552952
5895.95	-0.000782372	0.00564661
5940.95	-0.00091589	0.00562827
5985.95	-0.000934964	0.00566673
6030.95	-0.000934964	0.00610859
6075.95	-0.000858668	0.00606927
6120.95	-0.000973113	0.00607674
6165.95	-0.000801446	0.00623269
6210.95	-0.000839594	0.00621665
6255.95	-0.000992187	0.0064721
6300.95	-0.000763297	0.00685051
6345.95	-0.000934964	0.0066219
6390.95	-0.000973113	0.00667068
6435.95	-0.00082052	0.00659654
6480.95	-0.00101126	0.00676614
6525.95	-0.00091589	0.0073741
6570.95	-0.000896816	0.00708676
6615.95	-0.00103033	0.00714064
6660.95	-0.000896816	0.00705915
6705.95	-0.000973113	0.00715889
6750.95	-0.000973113	0.00769751
6795.95	-0.000858668	0.0073612
6840.95	-0.000782372	0.00745461
6885.95	-0.00103033	0.0074165
6930.95	-0.000839594	0.00730836
6975.95	-0.000801446	0.00773095
7020.95	-0.000877742	0.00779036
7065.95	-0.000858668	0.00776486
7110.95	-0.000629779	0.00784461
7155.95	-0.000858668	0.00777616
7200.95	-0.000973113	0.0079921
7245.95	-0.00091589	0.00811742
7290.95	-0.000896816	0.0079635
7335.95	-0.000992187	0.00809235
7380.95	-0.000896816	0.00804912
7425.95	-0.000839594	0.00813467
7470.95	-0.000896816	0.00860706
7515.95	-0.00082052	0.00832335
7560.95	-0.000782372	0.00838313
7605.95	-0.000896816	0.00852302
7650.95	-0.000839594	0.00856193
7695.95	-0.00091589	0.00903365
7740.95	-0.000858668	0.00882867
7785.95	-0.000877742	0.008946
7830.95	-0.00082052	0.00886869
7875.95	-0.000763297	0.00894252
7920.95	-0.00103033	0.00921091
7965.95	-0.00104941	0.00926491
8010.95	-0.00091589	0.00925287
8055.95	-0.000896816	0.00910817
8100.95	-0.000801446	0.00886943
8145.95	-0.000858668	0.00940835
8190.95	-0.000954038	0.00958905
8235.95	-0.000858668	0.00929351
8280.95	-0.000973113	0.00938642
8325.95	-0.000954038	0.00933655
8370.95	-0.000801446	0.00940247
8415.95	-0.00101126	0.0097904
8460.95	-0.00091589	0.00937754
8505.95	-0.000877742	0.00968644
8550.95	-0.000801446	0.00958253
8595.95	-0.000744223	0.00964633
8640.95	-0.000801446	0.0100011
8685.95	-0.000801446	0.0097521
8730.95	-0.00091589	0.0097659
8775.95	-0.000896816	0.0096843
8820.95	-0.000896816	0.00972871
8865.95	-0.000877742	0.0100891
8910.95	-0.000839594	0.00999234
8955.95	-0.000934964	0.00993618
9000.95	-0.000763297	0.00992862
9045.95	-0.000877742	0.00992954
9090.95	-0.000934964	0.0101087
9135.95	-0.00091589	0.010361
9180.95	-0.000896816	0.0100389
9225.95	-0.000954038	0.0101977
9270.95	-0.000934964	0.00999136
9315.95	-0.000782372	0.010165
9360.95	-0.00082052	0.0105327
9405.95	-0.00091589	0.0102094
9450.95	-0.000896816	0.0102831
9495.95	-0.000858668	0.0101939
9540.95	-0.00108756	0.0102946
9585.95	-0.000877742	0.0105989
9630.95	-0.000992187	0.0104042
9675.95	-0.000973113	0.0104471
9720.95	-0.000896816	0.0103913
9765.95	-0.00091589	0.010301
9810.95	-0.00091589	0.0105476
9855.95	-0.000896816	0.0105776
9900.95	-2.00082	-169.366
9945.95	-2.00095	-27.7573
9990.95	-2.00085	-15.2978
10036	-2.00076	-10.8003
10081	-2.00085	-8.45999
10126	-2.00074	-7.13158
10171	-2.00076	-6.23162
10216	-2.00082	-5.62762
10261	-2.00085	-5.21477
10306	-2.00087	-4.84799
10351	-2.00082	-4.66759
10396	-2.00078	-4.48059
10441	-2.00093	-4.34436
10486	-2.0008	-4.22408
10531	-2.00093	-4.12075
10576	-2.0008	-4.03626
10621	-2.00087	-3.9655
10666	-2.0008	-3.91448
10711	-2.00084	-3.87403
10756	-2.00089	-3.84939
10801	-0.000934964	218.958
10846	-0.000858668	1.86551
10891	-0.000896816	1.11621
10936	-0.000934964	0.902591
10981	-0.000954038	0.798339
11026	-0.000725149	0.735754
11071	-0.000934964	0.68815
11116	-0.00103033	0.655174
11161	-0.000839594	0.631304
11206	-0.000934964	0.613234
11251	-0.000839594	0.601114
11296	-0.000858668	0.588702
11341	-0.000992187	0.576195
11386	-0.000839594	0.564861
11431	-0.000858668	0.553427
11476	-0.000973113	0.543468
11521	-0.000896816	0.532452
11566	-0.00082052	0.518772
11611	-0.000763297	0.50564
11656	-0.00091589	0.491899
11701	-0.000896816	0.476627
11746	-0.000954038	0.463794
11791	-0.000725149	0.448697
11836	-0.00103033	0.433515
11881	-0.000896816	0.419219
11926	-0.000858668	0.404746
11971	-0.000973113	0.391723
12016	-0.000992187	0.377093
12061	-0.000877742	0.362993
12106	-0.000877742	0.349602
12151	-0.000973113	0.33646
12196	-0.000858668	0.325104
12241	-0.00091589	0.313113
12286	-0.000954038	0.301001
12331	-0.00091589	0.289937
12376	-0.000973113	0.279255
12421	-0.000725149	0.270316
12466	-0.00082052	0.261645
12511	-0.00103033	0.252536
12556	-0.00082052	0.244519
12601	-0.000763297	0.236414
12646	-0.000934964	0.229835
12691	-0.000877742	0.223852
12736	-0.00091589	0.216877
12781	-0.00103033	0.210992
12826	-0.00091589	0.205173
12871	-0.00091589	0.199796
12916	-0.00104941	0.195689
12961	-0.000725149	0.19048
13006	-0.000858668	0.186029
13051	-0.000706075	0.181645
13096	-0.000858668	0.177551
13141	-0.000896816	0.174516
13186	-0.000782372	0.170748
13231	-0.000801446	0.167106
13276	-0.000801446	0.163966
13321	-0.000858668	0.160797
13366	-0.000934964	0.158244
13411	-0.000954038	0.155857
13456	-0.000973113	0.152933
13500	-0.000763297	0.150277