Folder: Nickel_Dithiolene_Research_Experimental_Data/Data_06_Experiment

Note: README.md
# Nickel_Dithiolene_Research_Experimental_Data
Init_Data
This is a data repository that support the findings in the manuscript "Electrochemically Modulated Separation of Olefin-Paraffin Gas Mixtures in Membrane Electrode Assemblies". All uploaded codes use Matlab software version 2022A or above. All codes can be run on operating system windows 10 or above on any PC with sufficient memory to run Matlab. Refer to the System Requirements Page for Matlab at https://www.mathworks.com/support/requirements/matlab-system-requirements.html for further information.

On matlab, run the script "Graph_Results_Summary_v01" to plot all relevant graphs that are shown in the main manuscript. Further details including Gas Chromatographs of all experimental recordings can be found in individual numbered data folder. To find the appropriate data folder, refer to the excel spreadsheet "Result_Summary" which contains tables of summary data. Each column is labeled by the data folder number to which it pertains to.

In each data folder, it contains all appropriate raw chromatograph data from the MIcro GC 990 as ASCII file in "Compiled_Data" folder. Matlab codes used to analyze the gas chromatographs and chronoamperometry data are also included in each numbered data folder. To output and analyze the raw chromatograph data, run the script "Micro_GC_990_Data_Spreadsheet_Summary_v01". Be sure to edit the path_address within the Matlab script to direct the code to analyze the raw files from the appropriate address in your computer (e.g. C:\Users\Default\Documents\Compiled_Data\). To output the graphs shown in the Supplementary Information, run the script MEA_Experimental_Result_v01. Raw Chronoamperometry data (as text file) from the Potentiostat is included in each numbered data folder.

File: CA_001_C01.txt
time/s	Ewe/V	<I>/mA
1	1.49933	45.0198
193	1.49931	2.50961
385	1.49925	2.41906
577	1.49923	2.29732
769	1.49931	2.25312
961	1.49927	2.25253
1153	1.49923	2.11699
1345	1.49923	2.05702
1537	1.49931	2.0617
1729	1.49935	2.01296
1920.98	-0.000868968	-0.107357
2112.98	-0.00092619	-0.0174664
2304.98	-0.00102156	-0.000130337
2496.98	-0.000983412	0.00683813
2688.98	-0.00105971	0.0119018
2880.98	-0.00111693	0.0130514
3072.98	-0.00117415	0.0141133
3264.98	-0.00100249	0.0162531
3456.98	-0.00105971	0.0157481
3648.98	-0.00113601	0.0160486
3840.98	-0.00117415	0.0173311
4032.98	-0.000964338	0.0167884
4224.98	-0.00102156	0.0166202
4416.98	-0.00102156	0.0179183
4608.98	-0.000964338	0.0169653
4800.98	-0.00102156	0.0167889
4992.98	-0.000983412	0.0177522
5184.98	-0.00100249	0.0170514
5376.98	-0.00100249	0.0167517
5568.98	-0.000945264	0.0173369
5760.98	-0.000945264	0.016668
5952.98	-0.000907116	0.0166402
6144.98	-0.000945264	0.0169451
6336.98	-0.00115508	0.0166544
6528.98	-0.00111693	0.0164693
6720.98	-0.00104063	0.0164951
6912.98	-0.00105971	0.0163876
7104.98	-0.000945264	0.0162298
7296.98	-0.00105971	0.0162947
7488.98	-0.00107878	0.0160337
7680.98	-0.00111693	0.015796
7872.98	-0.00109786	0.0157092
8064.98	-0.000907116	0.0158683
8256.98	-0.00109786	0.015652
8448.98	-0.000945264	0.0154684
8640.98	-0.00104063	0.0155832
8832.98	-0.000983412	0.015246
9024.98	-0.00102156	0.0150278
9216.98	-0.00104063	0.0154337
9408.98	-0.00100249	0.0150166
9600.98	-0.000983412	0.0148116
9792.98	-0.000888042	0.0151468
9984.98	-0.000964338	0.0147834
10177	-0.000983412	0.0145912
10369	-0.000907116	0.014964
10561	-0.00102156	0.0145598
10753	-0.000964338	0.014319
10945	-2.00094	-9.85666
11137	-2.00085	-5.98108
11329	-2.00094	-5.11304
11521	-2.00085	-4.94571
11713	-0.000945264	6.772
11905	-0.00111693	0.873752
12097	-0.00113601	0.629618
12289	-0.00115508	0.496699
12481	-0.00109786	0.40762
12673	-0.000983412	0.346258
12865	-0.00111693	0.297108
13057	-0.000983412	0.262138
13249	-0.00107878	0.235917
13441	-0.00111693	0.212585
13633	-0.000983412	0.193535
13825	-0.00113601	0.17798
14017	-0.00102156	0.163847
14209	-0.000792671	0.151439
14401	1.49925	144.114
14593	1.49935	6.268
14785	1.49933	3.85603
14977	1.49933	2.97063
15169	1.49919	2.5117
15361	1.49935	2.40533
15553	1.49933	2.27349
15745	1.49916	2.26883
15937	1.49937	2.15751
16129	1.49918	2.07005
16321	-0.00105971	-0.050203
16513	-0.00111693	0.0077198
16705	-0.000964338	0.0184181
16897	-0.00105971	0.0252582
17089	-0.00107878	0.0252759
17281	-0.000945264	0.0253497
17473	-0.000983412	0.0271309
17665	-0.00111693	0.0253452
17857	-0.00107878	0.0248711
18049	-0.00111693	0.0253668
18241	-0.00107878	0.0239838
18433	-0.00092619	0.0236952
18625	-0.00111693	0.0236949
18817	-0.000983412	0.0226829
19009	-0.00113601	0.0222118
19201	-0.00100249	0.0218654
19393	-0.00117415	0.0211037
19585	-0.00107878	0.0206991
19777	-0.00105971	0.0204075
19969	-0.00100249	0.0202843
20161	-0.000811746	0.0198288
20353	-0.00109786	0.0193081
20545	-0.000983412	0.0193586
20737	-0.00102156	0.0186685
20929	-0.00092619	0.0183458
21121	-0.00105971	0.0186453
21313	-0.000945264	0.017878
21505	-0.00100249	0.0174101
21697	-0.00107878	0.0179764
21889	-0.000983412	0.0172515
22081	-0.00105971	0.0169374
22273	-0.00104063	0.0171883
22465	-0.00092619	0.0166361
22657	-0.00117415	0.0163159
22849	-0.00105971	0.0166635
23041	-0.00105971	0.0158618
23233	-0.00105971	0.0157088
23425	-0.000964338	0.0159956
23617	-0.000983412	0.0154892
23809	-0.00102156	0.015196
24001	-0.000888042	0.0154052
24193	-0.00104063	0.0149574
24385	-0.00100249	0.01481
24577	-0.00104063	0.0148464
24769	-0.00104063	0.0146633
24961	-0.00113601	0.0145106
25153	-0.00119323	0.0144094
25345	-2.00096	-6.91601
25537	-2.00075	-4.49917
25729	-2.00092	-3.99009
25921	-2.00083	-4.01163
26113	-0.000868968	6.49247
26305	-0.00105971	0.580138
26497	-0.000964338	0.395819
26689	-0.000945264	0.309551
26881	-0.000964338	0.250837
27073	-0.00104063	0.211292
27265	-0.00109786	0.182162
27457	-0.00113601	0.16148
27649	-0.000849894	0.145925
27841	-0.00109786	0.131952
28033	-0.00100249	0.120733
28225	-0.00119323	0.112235
28417	-0.00104063	0.103137
28609	-0.00105971	0.0959563
28801	1.49937	126.414
28993	1.4994	4.22384
29185	1.4994	2.74611
29377	1.49931	2.33359
29569	1.49939	2.38369
29761	1.49927	2.29043
29953	1.49935	2.27586
30145	1.49927	2.18756
30337	1.49925	2.10743
30529	1.49937	2.07053
30721	-0.000849894	-0.0810624
30913	-0.00102156	-0.0035619
31105	-0.00107878	0.011264
31297	-0.000964338	0.0157331
31489	-0.000983412	0.0175133
31681	-0.00102156	0.0185976
31873	-0.000983412	0.019039
32065	-0.00100249	0.0188915
32257	-0.00104063	0.0186744
32449	-0.00111693	0.0188807
32641	-0.00102156	0.0182135
32833	-0.000907116	0.0176936
33025	-0.00102156	0.0181383
33217	-0.00104063	0.0173634
33409	-0.000964338	0.0168381
33601	-0.00113601	0.0173717
33793	-0.00111693	0.0164303
33985	-0.000888042	0.0159442
34177	-0.000964338	0.0166409
34369	-0.000964338	0.0156944
34561	-0.00105971	0.0152404
34753	-0.00105971	0.0156828
34945	-0.00102156	0.0148883
35137	-0.000868968	0.014533
35329	-0.00104063	0.0148589
35521	-0.00107878	0.0142763
35713	-0.00102156	0.0139737
35905	-0.000983412	0.0141102
36097	-0.00107878	0.013552
36289	-0.00100249	0.0134407
36481	-0.00102156	0.013329
36673	-0.00109786	0.0130777
36865	-0.00102156	0.0128387
37057	-0.00102156	0.0128417
37249	-0.00109786	0.0127044
37441	-0.00105971	0.0124623
37633	-0.00111693	0.0123203
37825	-0.00113601	0.0123221
38017	-0.00105971	0.0121058
38209	-0.000945264	0.0118519
38401	-0.00109786	0.0119158
38593	-0.00104063	0.0117269
38785	-0.000983412	0.0115618
38977	-0.000983412	0.0115419
39169	-0.00104063	0.011383
39361	-0.00102156	0.0111733
39553	-0.000964338	0.0115629
39745	-2.00096	-5.60748
39937	-2.00075	-3.8651
40129	-2.00085	-3.45974
40321	-2.00073	-3.45035
40513	-0.00102156	6.44995
40705	-0.000945264	0.445403
40897	-0.000964338	0.278211
41089	-0.00104063	0.206783
41281	-0.000983412	0.167885
41473	-0.00102156	0.140195
41665	-0.00119323	0.122023
41857	-0.000888042	0.109071
42049	-0.00092619	0.0973115
42241	-0.000983412	0.0884608
42433	-0.000888042	0.0817161
42625	-0.000964338	0.0750157
42817	-0.00125045	0.0696048
43009	-0.00102156	0.0651456
43201	1.49931	117.944
43393	1.49933	3.24417
43585	1.49916	2.34071
43777	1.49937	2.43355
43969	1.49931	2.35104
44161	1.49931	2.27673
44353	1.49939	2.22002
44545	1.49927	2.13101
44737	1.49942	2.03584
44929	1.49923	1.97282
45121	-0.00102156	-0.102417
45313	-0.00107878	-0.0148452
45505	-0.00092619	0.00295135
45697	-0.00083082	0.00772208
45889	-0.00100249	0.00989922
46081	-0.00100249	0.0127728
46273	-0.00105971	0.0124203
46465	-0.00100249	0.012428
46657	-0.00109786	0.0137686
46849	-0.00107878	0.0129165
47041	-0.00102156	0.012585
47233	-0.00105971	0.013391
47425	-0.000964338	0.012678
47617	-0.00113601	0.012446
47809	-0.00104063	0.012696
48001	-0.00100249	0.0122637
48193	-0.00117415	0.0120095
48385	-0.000983412	0.0122297
48577	-0.00104063	0.0118083
48769	-0.00104063	0.0114701
48961	-0.00104063	0.0116129
49153	-0.00105971	0.0113635
49345	-0.000868968	0.0111823
49537	-0.00113601	0.0110841
49729	-0.00107878	0.0109851
49921	-0.00104063	0.0108502
50113	-0.000964338	0.0106279
50305	-0.00100249	0.0106753
50497	-0.00109786	0.0104327
50689	-0.00100249	0.0102678
50881	-0.00102156	0.0103241
51073	-0.000983412	0.00990991
51265	-0.00102156	0.00974655
51457	-0.00102156	0.0101633
51649	-0.00102156	0.00973748
51841	-0.00107878	0.00955414
52033	-0.00100249	0.00985975
52225	-0.00107878	0.00950796
52417	-0.00115508	0.00930604
52609	-0.000983412	0.00954782
52801	-0.00109786	0.00916649
52993	-0.000964338	0.00900394
53185	-0.000983412	0.00918904
53377	-0.000983412	0.0089197
53569	-0.000964338	0.00872571
53761	-0.00083082	0.0088775
53953	-0.00102156	0.00867834
54145	-2.00081	-5.06955
54337	-2.00083	-3.65948
54529	-2.00081	-3.30589
54721	-2.0009	-3.24377
54913	-0.00117415	6.55676
55105	-0.00104063	0.369206
55297	-0.000964338	0.207139
55489	-0.00117415	0.152516
55681	-0.00102156	0.122373
55873	-0.00104063	0.103702
56065	-0.00102156	0.090661
56257	-0.00102156	0.0805677
56449	-0.000945264	0.0724963
56641	-0.00107878	0.0661444
56833	-0.00105971	0.06107
57025	-0.00107878	0.0562385
57217	-0.000964338	0.0523925
57409	-0.00102156	0.0490704
57600	-0.00100249	0.0460101