Folder: Nickel_Dithiolene_Research_Experimental_Data/Data_03_Experiment

Note: README.md
# Nickel_Dithiolene_Research_Experimental_Data
Init_Data
This is a data repository that support the findings in the manuscript "Electrochemically Modulated Separation of Olefin-Paraffin Gas Mixtures in Membrane Electrode Assemblies". All uploaded codes use Matlab software version 2022A or above. All codes can be run on operating system windows 10 or above on any PC with sufficient memory to run Matlab. Refer to the System Requirements Page for Matlab at https://www.mathworks.com/support/requirements/matlab-system-requirements.html for further information.

On matlab, run the script "Graph_Results_Summary_v01" to plot all relevant graphs that are shown in the main manuscript. Further details including Gas Chromatographs of all experimental recordings can be found in individual numbered data folder. To find the appropriate data folder, refer to the excel spreadsheet "Result_Summary" which contains tables of summary data. Each column is labeled by the data folder number to which it pertains to.

In each data folder, it contains all appropriate raw chromatograph data from the MIcro GC 990 as ASCII file in "Compiled_Data" folder. Matlab codes used to analyze the gas chromatographs and chronoamperometry data are also included in each numbered data folder. To output and analyze the raw chromatograph data, run the script "Micro_GC_990_Data_Spreadsheet_Summary_v01". Be sure to edit the path_address within the Matlab script to direct the code to analyze the raw files from the appropriate address in your computer (e.g. C:\Users\Default\Documents\Compiled_Data\). To output the graphs shown in the Supplementary Information, run the script MEA_Experimental_Result_v01. Raw Chronoamperometry data (as text file) from the Potentiostat is included in each numbered data folder.

File: CA_001_C01.txt
time/s	Ewe/V	<I>/mA
1	1.49923	142.623
193	1.49942	4.31986
385	1.49925	3.79127
577	1.49929	3.84142
769	1.49919	3.43786
961	1.4994	3.50951
1153	1.49929	3.33017
1345	1.49927	3.01492
1537	1.49921	3.02404
1729	1.49919	2.91848
1920.95	-0.00104063	-0.222072
2112.95	-0.000945264	-0.0420048
2304.95	-0.00105971	-0.00260624
2496.95	-0.000945264	0.0129336
2688.95	-0.00105971	0.0225565
2880.95	-0.00100249	0.0268172
3072.95	-0.000945264	0.0295329
3264.95	-0.00109786	0.0327893
3456.95	-0.00109786	0.0326943
3648.95	-0.00105971	0.0332254
3840.95	-0.000964338	0.0350627
4032.95	-0.000983412	0.03445
4224.95	-0.00107878	0.0341836
4416.95	-0.00107878	0.0357238
4608.95	-0.00102156	0.0345499
4800.95	-0.000888042	0.0345434
4992.95	-0.00102156	0.0348993
5184.95	-0.00100249	0.0339479
5376.95	-0.00102156	0.0337133
5568.95	-0.000888042	0.033733
5760.95	-0.00102156	0.0330376
5952.95	-0.00107878	0.0326076
6144.95	-0.00107878	0.032411
6336.95	-0.00107878	0.0318606
6528.95	-0.000983412	0.0314735
6720.95	-0.00105971	0.031381
6912.95	-0.00115508	0.0308594
7104.95	-0.00102156	0.0301884
7296.95	-0.00111693	0.0299561
7488.95	-0.000964338	0.0297393
7680.95	-0.00102156	0.0294924
7872.95	-0.00102156	0.0289285
8064.95	-0.000945264	0.0287288
8256.95	-0.00111693	0.0283145
8448.95	-0.000964338	0.0280052
8640.95	-0.00100249	0.0279151
8832.95	-0.00092619	0.0273723
9024.95	-0.00109786	0.027003
9216.95	-0.00100249	0.0270771
9408.95	-0.00115508	0.0265658
9600.95	-0.000983412	0.026177
9792.95	-0.00100249	0.0261299
9984.95	-0.00105971	0.0257136
10177	-0.00100249	0.0253965
10369	-0.00107878	0.0253692
10561	-0.00100249	0.0248753
10753	-0.00113601	0.0246564
10945	-2.00086	-10.4531
11137	-2.00088	-7.32214
11329	-2.0009	-6.39228
11521	-2.00081	-6.12048
11713	-0.00092619	6.23437
11905	-0.00115508	1.05973
12097	-0.00104063	0.599519
12289	-0.000983412	0.402772
12481	-0.00104063	0.301158
12673	-0.000964338	0.236487
12865	-0.00100249	0.191417
13057	-0.00100249	0.159837
13249	-0.00107878	0.136883
13441	-0.00102156	0.118764
13633	-0.000964338	0.105099
13825	-0.00107878	0.0942368
14017	-0.00100249	0.0852465
14209	-0.00111693	0.0779177
14401	1.49925	151.934
14593	1.49923	4.90181
14785	1.49916	3.42086
14977	1.49931	3.22511
15169	1.49918	3.31735
15361	1.49935	3.07604
15553	1.49931	2.90209
15745	1.49921	2.88718
15937	1.49933	2.74235
16129	1.49918	2.58483
16321	-0.00109786	-0.273845
16513	-0.000983412	-0.0848978
16705	-0.00092619	-0.0412457
16897	-0.000907116	-0.0212266
17089	-0.00104063	-0.0098732
17281	-0.0012886	-0.00253774
17473	-0.00102156	0.0023691
17665	-0.00102156	0.00610722
17857	-0.000907116	0.00834626
18049	-0.000983412	0.010784
18241	-0.000945264	0.0119158
18433	-0.00100249	0.0127901
18625	-0.00111693	0.0135549
18817	-0.00111693	0.0142291
19009	-0.00104063	0.014596
19201	-0.00115508	0.0149823
19393	-0.00100249	0.0153325
19585	-0.00107878	0.0154741
19777	-0.00125045	0.0155166
19969	-0.00102156	0.0158145
20161	-0.000888042	0.0153745
20353	-0.00102156	0.0153861
20545	-0.00100249	0.0155033
20737	-0.00102156	0.0151509
20929	-0.000964338	0.0152474
21121	-0.00115508	0.015318
21313	-0.00104063	0.015089
21505	-0.000964338	0.0155416
21697	-0.00105971	0.0156987
21889	-0.000868968	0.0152485
22081	-0.00105971	0.015183
22273	-0.000964338	0.0154292
22465	-0.00117415	0.0150378
22657	-0.000945264	0.014668
22849	-0.00105971	0.0150428
23041	-0.00105971	0.0147785
23233	-0.000983412	0.0145886
23425	-0.00100249	0.0147161
23617	-0.00104063	0.0143639
23809	-0.00105971	0.0139066
24001	-0.00102156	0.0137487
24193	-0.000983412	0.013303
24385	-0.00107878	0.0131357
24577	-0.00100249	0.0131894
24769	-0.000945264	0.0130051
24961	-0.00109786	0.0130507
25153	-0.00092619	0.0129757
25345	-2.0009	-11.0028
25537	-2.00092	-8.14003
25729	-2.00081	-7.04939
25921	-2.00083	-6.5952
26113	-0.00105971	6.22753
26305	-0.00105971	0.701902
26497	-0.000868968	0.429621
26689	-0.00109786	0.314528
26881	-0.00092619	0.250828
27073	-0.00113601	0.207496
27265	-0.00102156	0.176981
27457	-0.00102156	0.154361
27649	-0.00109786	0.135736
27841	-0.000983412	0.120784
28033	-0.00119323	0.108735
28225	-0.00109786	0.0987072
28417	-0.00117415	0.0897472
28609	-0.00117415	0.0824888
28801	1.49914	154.992
28993	1.49937	4.01717
29185	1.49927	3.33463
29377	1.49927	3.24947
29569	1.49939	3.14668
29761	1.49929	2.93018
29953	1.49942	2.83769
30145	1.49935	2.72374
30337	1.49919	2.60856
30529	1.49939	2.54439
30721	-0.00100249	-0.237722
30913	-0.00109786	-0.0695072
31105	-0.00102156	-0.0351555
31297	-0.000888042	-0.0204545
31489	-0.00105971	-0.0128057
31681	-0.00115508	-0.00755494
31873	-0.00102156	-0.00411402
32065	-0.000964338	-0.00118751
32257	-0.000983412	0.00042478
32449	-0.00102156	0.00228931
32641	-0.00107878	0.00358139
32833	-0.00107878	0.00435211
33025	-0.00111693	0.00534106
33217	-0.00092619	0.00581741
33409	-0.00117415	0.0062639
33601	-0.00104063	0.00697305
33793	-0.0012123	0.00706313
33985	-0.00104063	0.00706546
34177	-0.00104063	0.00773297
34369	-0.00105971	0.00772766
34561	-0.00117415	0.00769431
34753	-0.00109786	0.00844711
34945	-0.00100249	0.00832378
35137	-0.000964338	0.0080294
35329	-0.00105971	0.0087798
35521	-0.00117415	0.00854323
35713	-0.00100249	0.00851342
35905	-0.000964338	0.00845308
36097	-0.000964338	0.00826056
36289	-0.00117415	0.00816584
36481	-0.00107878	0.00818479
36673	-0.00102156	0.00795324
36865	-0.000964338	0.00796372
37057	-0.000888042	0.007896
37249	-0.00115508	0.00778028
37441	-0.00107878	0.00770436
37633	-0.00105971	0.00786331
37825	-0.00107878	0.00758877
38017	-0.00105971	0.00773429
38209	-0.00107878	0.00755502
38401	-0.00102156	0.00765093
38593	-0.00105971	0.00756582
38785	-0.000907116	0.00743193
38977	-0.00104063	0.00746342
39169	-0.00111693	0.00730127
39361	-0.00109786	0.0072519
39553	-0.00102156	0.00743131
39745	-2.00085	-10.4014
39937	-2.00094	-7.8999
40129	-2.00096	-6.92333
40321	-2.00094	-6.36967
40513	-0.00109786	6.36676
40705	-0.00105971	0.521673
40897	-0.00104063	0.323123
41089	-0.00100249	0.241617
41281	-0.00107878	0.194557
41473	-0.00104063	0.162547
41665	-0.00111693	0.139784
41857	-0.00100249	0.123072
42049	-0.00104063	0.108711
42241	-0.000964338	0.0975294
42433	-0.00107878	0.0890164
42625	-0.00105971	0.080551
42817	-0.00100249	0.0742552
43009	-0.000983412	0.0690006
43201	1.49916	152.596
43393	1.4994	3.5069
43585	1.4994	3.30843
43777	1.49921	3.17072
43969	1.49931	2.99355
44161	1.4994	2.83919
44353	1.49929	2.74421
44545	1.49929	2.62023
44737	1.49933	2.55395
44929	1.4994	2.45536
45121	-0.00109786	-0.229293
45313	-0.000945264	-0.0647378
45505	-0.000983412	-0.0327233
45697	-0.00117415	-0.0199651
45889	-0.00111693	-0.0131866
46081	-0.00104063	-0.00869055
46273	-0.00109786	-0.00614453
46465	-0.00109786	-0.00429015
46657	-0.000983412	-0.0024567
46849	-0.00126952	-0.00141189
47041	-0.00115508	-0.000515872
47233	-0.00107878	0.000550583
47425	-0.00105971	0.00115176
47617	-0.00104063	0.00168224
47809	-0.00113601	0.00242658
48001	-0.00113601	0.00254097
48193	-0.000945264	0.00293336
48385	-0.00111693	0.00341702
48577	-0.00109786	0.00357205
48769	-0.000983412	0.00379288
48961	-0.00104063	0.00409802
49153	-0.00102156	0.00414138
49345	-0.00109786	0.00431501
49537	-0.00105971	0.00442214
49729	-0.000964338	0.00453726
49921	-0.00111693	0.00456191
50113	-0.00092619	0.00480867
50305	-0.00107878	0.00482564
50497	-0.000945264	0.00492189
50689	-0.00100249	0.00489799
50881	-0.00107878	0.00510803
51073	-0.00104063	0.00499769
51265	-0.000907116	0.00509801
51457	-0.00092619	0.00527281
51649	-0.00100249	0.00511502
51841	-0.00109786	0.00496465
52033	-0.00107878	0.00531355
52225	-0.00107878	0.0052474
52417	-0.000945264	0.00507562
52609	-0.00105971	0.00532273
52801	-0.00100249	0.00520661
52993	-0.000983412	0.00524359
53185	-0.000945264	0.0053419
53377	-0.000983412	0.00521803
53569	-0.00105971	0.00513608
53761	-0.000983412	0.00536858
53953	-0.000964338	0.00528016
54145	-2.00077	-10.3243
54337	-2.0009	-7.90517
54529	-2.00081	-7.05861
54721	-2.00096	-6.61634
54913	-0.00104063	6.60303
55105	-0.00111693	0.450433
55297	-0.00092619	0.278962
55489	-0.00092619	0.212597
55681	-0.00102156	0.170912
55873	-0.00100249	0.144857
56065	-0.000983412	0.125963
56257	-0.00115508	0.110458
56449	-0.00104063	0.0987428
56641	-0.00092619	0.0895169
56833	-0.00105971	0.0809266
57025	-0.00104063	0.0745354
57217	-0.00105971	0.0688934
57409	-0.00104063	0.0638674
57600	-0.00083082	0.0592325