Folder: Nickel_Dithiolene_Research_Experimental_Data/Data_11_Experiment

Note: README.md
# Nickel_Dithiolene_Research_Experimental_Data
Init_Data
This is a data repository that support the findings in the manuscript "Electrochemically Modulated Separation of Olefin-Paraffin Gas Mixtures in Membrane Electrode Assemblies". All uploaded codes use Matlab software version 2022A or above. All codes can be run on operating system windows 10 or above on any PC with sufficient memory to run Matlab. Refer to the System Requirements Page for Matlab at https://www.mathworks.com/support/requirements/matlab-system-requirements.html for further information.

On matlab, run the script "Graph_Results_Summary_v01" to plot all relevant graphs that are shown in the main manuscript. Further details including Gas Chromatographs of all experimental recordings can be found in individual numbered data folder. To find the appropriate data folder, refer to the excel spreadsheet "Result_Summary" which contains tables of summary data. Each column is labeled by the data folder number to which it pertains to.

In each data folder, it contains all appropriate raw chromatograph data from the MIcro GC 990 as ASCII file in "Compiled_Data" folder. Matlab codes used to analyze the gas chromatographs and chronoamperometry data are also included in each numbered data folder. To output and analyze the raw chromatograph data, run the script "Micro_GC_990_Data_Spreadsheet_Summary_v01". Be sure to edit the path_address within the Matlab script to direct the code to analyze the raw files from the appropriate address in your computer (e.g. C:\Users\Default\Documents\Compiled_Data\). To output the graphs shown in the Supplementary Information, run the script MEA_Experimental_Result_v01. Raw Chronoamperometry data (as text file) from the Potentiostat is included in each numbered data folder.

File: CA_001_C01.txt
time/s	Ewe/V	<I>/mA
1	1.49929	169.071
193	1.49918	5.83221
385	1.49925	3.46097
577	1.49935	2.66024
769	1.49931	2.271
961	1.4994	2.05835
1153	1.49944	1.89586
1345	1.49933	1.77986
1537	1.49929	1.72569
1729	1.49933	1.64783
1920.95	-0.00100249	-0.0143937
2112.95	-0.000945264	0.0188049
2304.95	-0.000964338	0.0198064
2496.95	-0.00111693	0.0196231
2688.95	-0.000983412	0.0184191
2880.95	-0.00109786	0.0177889
3072.95	-0.000964338	0.0172096
3264.95	-0.00100249	0.0163428
3456.95	-0.00111693	0.0156947
3648.95	-0.00115508	0.0153964
3840.95	-0.00104063	0.0147651
4032.95	-0.000945264	0.0144427
4224.95	-0.000983412	0.014287
4416.95	-0.00109786	0.0139684
4608.95	-0.00092619	0.0137711
4800.95	-0.00107878	0.0134943
4992.95	-0.00104063	0.0130275
5184.95	-0.000945264	0.0128873
5376.95	-0.00104063	0.012685
5568.95	-0.000983412	0.012509
5760.95	-0.00107878	0.012502
5952.95	-0.00111693	0.0122902
6144.95	-0.00104063	0.0121963
6336.95	-0.00100249	0.0117891
6528.95	-0.00109786	0.0117867
6720.95	-0.00104063	0.0117441
6912.95	-0.00083082	0.0115231
7104.95	-0.00105971	0.0113778
7296.95	-0.00102156	0.0114922
7488.95	-0.00111693	0.0111884
7680.95	-0.00111693	0.0110834
7872.95	-0.00109786	0.011219
8064.95	-0.000983412	0.0107484
8256.95	-0.00105971	0.0107914
8448.95	-0.00107878	0.0107099
8640.95	-0.00100249	0.0104585
8832.95	-0.00102156	0.0103745
9024.95	-0.00104063	0.0102495
9216.95	-0.00107878	0.0102136
9408.95	-0.000983412	0.0100969
9600.95	-0.00107878	0.0102463
9792.95	-0.00119323	0.0100649
9984.95	-0.00115508	0.0100116
10177	-0.00102156	0.00999679
10369	-0.00107878	0.00986201
10561	-0.000945264	0.00978182
10753	-0.00102156	0.00975637
10945	-2.00073	-5.78649
11137	-2.00086	-4.3216
11329	-2.00088	-4.31005
11521	-2.00075	-4.31574
11713	-0.00102156	7.13747
11905	-0.000945264	0.406749
12097	-0.00109786	0.255908
12289	-0.000964338	0.193362
12481	-0.00102156	0.153869
12673	-0.00100249	0.128616
12865	-0.00092619	0.110553
13057	-0.00119323	0.0976129
13249	-0.000983412	0.0880046
13441	-0.00104063	0.0800212
13633	-0.00104063	0.0735169
13825	-0.000983412	0.0683907
14017	-0.00100249	0.0635743
14209	-0.00104063	0.0596005
14401	1.49937	171.953
14593	1.49935	4.50864
14785	1.4994	2.8514
14977	1.49931	2.25932
15169	1.49933	2.02308
15361	1.49918	1.85712
15553	1.49929	1.70948
15745	1.49929	1.68326
15937	1.49935	1.61361
16129	1.49929	1.53495
16321	-0.00109786	-0.0609283
16513	-0.00115508	0.00224956
16705	-0.0012123	0.0104699
16897	-0.000945264	0.0120238
17089	-0.00109786	0.0126787
17281	-0.00092619	0.0126431
17473	-0.000868968	0.0126523
17665	-0.00123138	0.0122377
17857	-0.00092619	0.0122901
18049	-0.00113601	0.0123689
18241	-0.00100249	0.0120067
18433	-0.00100249	0.0118638
18625	-0.000849894	0.0115474
18817	-0.00100249	0.0114685
19009	-0.00102156	0.0110824
19201	-0.00109786	0.0110976
19393	-0.00104063	0.0107393
19585	-0.000945264	0.0107768
19777	-0.000983412	0.0109163
19969	-0.00100249	0.0105823
20161	-0.000983412	0.0104285
20353	-0.00107878	0.0104388
20545	-0.000983412	0.0103295
20737	-0.00109786	0.0101175
20929	-0.000773597	0.0101551
21121	-0.00107878	0.00990233
21313	-0.00104063	0.00961268
21505	-0.00109786	0.00968783
21697	-0.00109786	0.00940058
21889	-0.000983412	0.00925495
22081	-0.000849894	0.00933296
22273	-0.00109786	0.00917312
22465	-0.00109786	0.00914925
22657	-0.000907116	0.00930139
22849	-0.00100249	0.0088318
23041	-0.0012123	0.00897551
23233	-0.000907116	0.00888881
23425	-0.00111693	0.00864525
23617	-0.000888042	0.00874637
23809	-0.00100249	0.00872721
24001	-0.000964338	0.00850155
24193	-0.00102156	0.00842548
24385	-0.00115508	0.00847423
24577	-0.00104063	0.00837234
24769	-0.00109786	0.00838357
24961	-0.000964338	0.00822358
25153	-0.00102156	0.0081567
25345	-2.00088	-5.55444
25537	-2.00077	-4.24727
25729	-2.00088	-4.65991
25921	-2.00083	-4.61638
26113	-0.00104063	7.07475
26305	-0.00107878	0.339764
26497	-0.000964338	0.190902
26689	-0.00105971	0.137735
26881	-0.00105971	0.110113
27073	-0.00100249	0.0918583
27265	-0.00115508	0.080056
27457	-0.00092619	0.0714145
27649	-0.00109786	0.0643226
27841	-0.00107878	0.0590052
28033	-0.00107878	0.05447
28225	-0.000983412	0.0504883
28417	-0.00100249	0.0472312
28609	-0.00102156	0.0442592
28801	1.49914	170.614
28993	1.49929	3.56882
29185	1.49937	2.391
29377	1.49939	2.04842
29569	1.49925	1.86386
29761	1.49919	1.7087
29953	1.49931	1.68347
30145	1.49921	1.63757
30337	1.49919	1.57023
30529	1.49935	1.58459
30721	-0.00102156	-0.0971001
30913	-0.00092619	-0.0124505
31105	-0.00102156	0.000890013
31297	-0.000945264	0.00545753
31489	-0.00107878	0.00698879
31681	-0.000964338	0.00807033
31873	-0.00100249	0.00850065
32065	-0.00109786	0.00851414
32257	-0.000983412	0.0084025
32449	-0.00109786	0.00880244
32641	-0.00113601	0.00879871
32833	-0.00100249	0.00877576
33025	-0.000964338	0.00849757
33217	-0.000983412	0.00857825
33409	-0.000868968	0.00862127
33601	-0.00109786	0.00850294
33793	-0.00107878	0.00843158
33985	-0.00100249	0.00847817
34177	-0.00111693	0.00822689
34369	-0.00100249	0.00808293
34561	-0.00117415	0.00809206
34753	-0.00105971	0.00797124
34945	-0.00104063	0.00783878
35137	-0.000983412	0.00789663
35329	-0.000964338	0.00772271
35521	-0.00100249	0.00775035
35713	-0.000907116	0.00775208
35905	-0.00117415	0.00754673
36097	-0.00113601	0.0075077
36289	-0.00104063	0.00745541
36481	-0.000964338	0.00740779
36673	-0.00100249	0.00733129
36865	-0.00105971	0.00733676
37057	-0.000888042	0.0071024
37249	-0.000964338	0.00713315
37441	-0.00113601	0.00708451
37633	-0.00111693	0.0071418
37825	-0.00104063	0.00698354
38017	-0.00102156	0.00705067
38209	-0.00109786	0.00694805
38401	-0.00104063	0.00680102
38593	-0.000983412	0.00685602
38785	-0.000983412	0.00690171
38977	-0.00113601	0.00699218
39169	-0.000964338	0.00669781
39361	-0.00092619	0.00678327
39553	-0.000945264	0.00659693
39745	-2.00085	-4.8169
39937	-2.0009	-4.32871
40129	-2.0009	-4.48141
40321	-2.00085	-4.87668
40513	-0.00104063	7.20536
40705	-0.00104063	0.308415
40897	-0.00107878	0.164817
41089	-0.000907116	0.115315
41281	-0.000907116	0.0903618
41473	-0.00105971	0.0756178
41665	-0.00107878	0.0656415
41857	-0.00119323	0.0586125
42049	-0.000983412	0.0529013
42241	-0.000964338	0.0482597
42433	-0.00092619	0.0446444
42625	-0.00105971	0.0414654
42817	-0.00104063	0.0386936
43009	-0.000945264	0.0364943
43201	1.49937	173.252
43393	1.4994	3.15294
43585	1.49923	2.23145
43777	1.49931	1.9624
43969	1.49925	1.78416
44161	1.49921	1.69345
44353	1.49935	1.6836
44545	1.49933	1.62975
44737	1.49944	1.60297
44929	1.49929	1.60415
45121	-0.000964338	-0.12233
45313	-0.00105971	-0.0230107
45505	-0.00104063	-0.00550798
45697	-0.00104063	0.000913998
45889	-0.000964338	0.00382099
46081	-0.000983412	0.00486167
46273	-0.00092619	0.00578475
46465	-0.000983412	0.00631586
46657	-0.000964338	0.00669849
46849	-0.00105971	0.00687804
47041	-0.00107878	0.00700565
47233	-0.000945264	0.00699446
47425	-0.00100249	0.00690049
47617	-0.000868968	0.00701728
47809	-0.00119323	0.00689633
48001	-0.000964338	0.0073185
48193	-0.00092619	0.00677547
48385	-0.00104063	0.00686084
48577	-0.00105971	0.00682286
48769	-0.00109786	0.00676077
48961	-0.000983412	0.00672052
49153	-0.00104063	0.00662023
49345	-0.00104063	0.00683919
49537	-0.00111693	0.00666414
49729	-0.00117415	0.0065407
49921	-0.00113601	0.00660914
50113	-0.00113601	0.00649975
50305	-0.00104063	0.00636958
50497	-0.00111693	0.00627146
50689	-0.00113601	0.00635549
50881	-0.000983412	0.00624492
51073	-0.00092619	0.00623917
51265	-0.00105971	0.00607785
51457	-0.00102156	0.00622602
51649	-0.000907116	0.00624441
51841	-0.000983412	0.00616846
52033	-0.00104063	0.00602136
52225	-0.000964338	0.0060347
52417	-0.00092619	0.00592907
52609	-0.00102156	0.00570561
52801	-0.00111693	0.00574508
52993	-0.00119323	0.00581988
53185	-0.00104063	0.00578829
53377	-0.00107878	0.00571434
53569	-0.00104063	0.0058324
53761	-0.000983412	0.00563286
53953	-0.000888042	0.00548562
54145	-2.00085	-5.04826
54337	-2.00079	-4.23089
54529	-2.00079	-4.6704
54721	-2.0009	-4.90508
54913	-0.00102156	7.37607
55105	-0.000945264	0.29269
55297	-0.00105971	0.153772
55489	-0.00105971	0.106877
55681	-0.00109786	0.0829593
55873	-0.00105971	0.0689181
56065	-0.000907116	0.0599608
56257	-0.00100249	0.0527641
56449	-0.00104063	0.0474067
56641	-0.000983412	0.0434153
56833	-0.00111693	0.0399722
57025	-0.00113601	0.0372428
57217	-0.000983412	0.03506
57409	-0.000964338	0.032842
57600	-0.00104063	0.031061