Folder: Nickel_Dithiolene_Research_Experimental_Data/Data_23_Experiment

Note: README.md
# Nickel_Dithiolene_Research_Experimental_Data
Init_Data
This is a data repository that support the findings in the manuscript "Electrochemically Modulated Separation of Olefin-Paraffin Gas Mixtures in Membrane Electrode Assemblies". All uploaded codes use Matlab software version 2022A or above. All codes can be run on operating system windows 10 or above on any PC with sufficient memory to run Matlab. Refer to the System Requirements Page for Matlab at https://www.mathworks.com/support/requirements/matlab-system-requirements.html for further information.

On matlab, run the script "Graph_Results_Summary_v01" to plot all relevant graphs that are shown in the main manuscript. Further details including Gas Chromatographs of all experimental recordings can be found in individual numbered data folder. To find the appropriate data folder, refer to the excel spreadsheet "Result_Summary" which contains tables of summary data. Each column is labeled by the data folder number to which it pertains to.

In each data folder, it contains all appropriate raw chromatograph data from the MIcro GC 990 as ASCII file in "Compiled_Data" folder. Matlab codes used to analyze the gas chromatographs and chronoamperometry data are also included in each numbered data folder. To output and analyze the raw chromatograph data, run the script "Micro_GC_990_Data_Spreadsheet_Summary_v01". Be sure to edit the path_address within the Matlab script to direct the code to analyze the raw files from the appropriate address in your computer (e.g. C:\Users\Default\Documents\Compiled_Data\). To output the graphs shown in the Supplementary Information, run the script MEA_Experimental_Result_v01. Raw Chronoamperometry data (as text file) from the Potentiostat is included in each numbered data folder.

File: CA_264_C01.txt
time/s	Ewe/V	<I>/mA
1	1.49964	301.931
193	1.49964	23.9375
385	1.49961	26.5937
577	1.49951	18.8051
769	1.49932	15.5217
961	1.49955	13.2052
1153	1.49959	11.0312
1345	1.49949	8.93002
1537	1.49964	7.21632
1729	1.49945	5.80251
1920.95	-0.000992187	-0.252402
2112.95	-0.000896816	-0.127895
2304.95	-0.00082052	-0.0995861
2496.95	-0.000877742	-0.0860939
2688.95	-0.00091589	-0.0779837
2880.95	-0.000934964	-0.0711292
3072.95	-0.00104941	-0.0660668
3264.95	-0.000858668	-0.0626001
3456.95	-0.00103033	-0.0567548
3648.95	-0.000896816	-0.0537783
3840.95	-0.000858668	-0.0524843
4032.95	-0.00091589	-0.0489775
4224.95	-0.000992187	-0.0452256
4416.95	-0.00091589	-0.0434943
4608.95	-0.000801446	-0.0403623
4800.95	-0.000896816	-0.0388065
4992.95	-0.00101126	-0.0338417
5184.95	-0.000934964	-0.0302663
5376.95	-0.00101126	-0.0267132
5568.95	-0.000934964	-0.0235708
5760.95	-0.000839594	-0.0206736
5952.95	-0.000877742	-0.0183051
6144.95	-0.000896816	-0.0087336
6336.95	-0.000858668	-0.0101217
6528.95	-0.000934964	-0.00907832
6720.95	-0.000954038	-0.0076593
6912.95	-0.000934964	-0.00746314
7104.95	-0.000839594	-0.00466343
7296.95	-0.000954038	-0.00590773
7488.95	-0.000992187	-0.00560654
7680.95	-0.000839594	-0.00366853
7872.95	-0.000877742	-0.00129487
8064.95	-0.00091589	-0.00178621
8256.95	-0.000858668	6.16609e-06
8448.95	-0.000839594	0.00246588
8640.95	-0.00091589	0.00150441
8832.95	-0.000934964	0.00289073
9024.95	-0.00103033	0.0048118
9216.95	-0.000896816	0.00474905
9408.95	-0.000782372	0.00618372
9600.95	-0.000877742	0.00744461
9792.95	-0.000896816	0.0075632
9984.95	-0.00091589	0.00780068
10177	-0.00110663	0.00945596
10369	-0.000992187	0.0100076
10561	-0.000858668	0.0102869
10753	-0.000954038	0.0110532
10945	-2.00099	-19.3682
11137	-2.00101	-8.15575
11329	-2.00093	-5.21135
11521	-2.00091	-3.94867
11713	-0.000877742	9.20899
11905	-0.000954038	0.446453
12097	-0.00091589	0.311041
12289	-0.000801446	0.252043
12481	-0.00091589	0.219025
12673	-0.000896816	0.198904
12865	-0.00091589	0.180541
13057	-0.000839594	0.168562
13249	-0.000877742	0.161334
13441	-0.000934964	0.150376
13633	-0.000896816	0.144483
13825	-0.00106848	0.140939
14017	-0.000801446	0.133597
14209	-0.00104941	0.130011
14401	1.49945	214.555
14593	1.49964	9.98209
14785	1.49972	8.18184
14977	1.49951	7.7815
15169	1.49941	7.54051
15361	1.49961	7.03228
15553	1.49945	6.41066
15745	1.49955	5.88997
15937	1.49955	5.13764
16129	1.49961	4.28638
16321	-0.00082052	-0.220145
16513	-0.00082052	-0.0836559
16705	-0.000992187	-0.0585825
16897	-0.000896816	-0.0508261
17089	-0.000877742	-0.0481513
17281	-0.000896816	-0.046345
17473	-0.000896816	-0.044754
17665	-0.000992187	-0.0432137
17857	-0.00091589	-0.0451219
18049	-0.000973113	-0.043251
18241	-0.000954038	-0.04174
18433	-0.000973113	-0.0397125
18625	-0.000896816	-0.0372548
18817	-0.000954038	-0.0352757
19009	-0.00091589	-0.0324727
19201	-0.00091589	-0.0298102
19393	-0.000934964	-0.0285453
19585	-0.00103033	-0.0270711
19777	-0.000877742	-0.0246389
19969	-0.00091589	-0.0236931
20161	-0.000896816	-0.0217532
20353	-0.000725149	-0.0194987
20545	-0.00082052	-0.0188956
20737	-0.000839594	-0.0171743
20929	-0.000801446	-0.0149886
21121	-0.000992187	-0.0141517
21313	-0.00082052	-0.0126271
21505	-0.000877742	-0.0110067
21697	-0.000934964	-0.0104145
21889	-0.000858668	-0.00899339
22081	-0.000954038	-0.00749758
22273	-0.000877742	-0.00675881
22465	-0.000992187	-0.00561203
22657	-0.000858668	0.000679965
22849	-0.000801446	0.00116386
23041	-0.000801446	0.00202953
23233	-0.000877742	0.00310443
23425	-0.000877742	0.00396009
23617	-0.00104941	0.00465391
23809	-0.000801446	0.00544123
24001	-0.000858668	0.00637696
24193	-0.000839594	0.00684556
24385	-0.000877742	0.00278051
24577	-0.00082052	0.00397056
24769	-0.00103033	0.00402449
24961	-0.00104941	0.00478665
25153	-0.000896816	0.0061228
25345	-2.00089	-11.9445
25537	-2.00089	-5.5239
25729	-2.00072	-3.80731
25921	-2.00095	-2.97284
26113	-0.000839594	9.03047
26305	-0.000934964	0.407414
26497	-0.000973113	0.263402
26689	-0.000725149	0.211517
26881	-0.000801446	0.182527
27073	-0.000858668	0.158952
27265	-0.000954038	0.144152
27457	-0.00101126	0.133834
27649	-0.000896816	0.123177
27841	-0.000858668	0.116362
28033	-0.000801446	0.110925
28225	-0.000992187	0.104684
28417	-0.000992187	0.10082
28609	-0.00101126	0.097561
28801	1.49949	130.911
28993	1.49957	7.05125
29185	1.49957	5.48416
29377	1.49949	4.85397
29569	1.49953	4.16404
29761	1.49957	3.47722
29953	1.49941	3.13889
30145	1.49955	2.75303
30337	1.49966	2.32961
30529	1.49957	2.10547
30721	-0.000954038	-0.120577
30913	-0.00104941	-0.0332645
31105	-0.00082052	-0.0132474
31297	-0.000896816	-0.0113
31489	-0.000934964	-0.00773694
31681	-0.000934964	-0.00491596
31873	-0.000896816	-0.00452939
32065	-0.00082052	-0.00323886
32257	-0.000896816	-0.00162012
32449	-0.00091589	-0.00174963
32641	-0.000877742	-0.000781009
32833	-0.00091589	0.000330963
33025	-0.000934964	0.00038039
33217	-0.000934964	0.00125728
33409	-0.000992187	0.00212312
33601	-0.00091589	0.00229347
33793	-0.00091589	0.00300092
33985	-0.00091589	0.00358078
34177	-0.000896816	0.00380534
34369	-0.000801446	0.00438705
34561	-0.000934964	0.00487205
34753	-0.000992187	0.00528044
34945	-0.000934964	0.00574415
35137	-0.000934964	0.0061009
35329	-0.000992187	0.00667661
35521	-0.000896816	0.00675676
35713	-0.000973113	0.00699739
35905	-0.000667927	0.00774023
36097	-0.00101126	0.00776219
36289	-0.00082052	0.00811409
36481	-0.00091589	0.0153484
36673	-0.000763297	0.0146828
36865	-0.00101126	0.0147927
37057	-0.00091589	0.0154775
37249	-0.00103033	0.0153621
37441	-0.000896816	0.0155535
37633	-0.000858668	0.0162397
37825	-0.000954038	0.0159794
38017	-0.00091589	0.0162094
38209	-0.000973113	0.0170184
38401	-0.000954038	0.0166815
38593	-0.00091589	0.0169716
38785	-0.00082052	0.0176213
38977	-0.00108756	0.017548
39169	-0.000896816	0.0176712
39361	-0.00110663	0.0116963
39553	-0.00091589	0.0114746
39745	-2.0008	-8.86974
39937	-2.00087	-4.52241
40129	-2.00085	-3.18459
40321	-2.00091	-2.594
40513	-0.00091589	9.01658
40705	-0.00082052	0.383419
40897	-0.000839594	0.249579
41089	-0.000934964	0.200365
41281	-0.000782372	0.170758
41473	-0.000896816	0.150447
41665	-0.000934964	0.135565
41857	-0.00103033	0.124395
42049	-0.00091589	0.114258
42241	-0.000954038	0.106308
42433	-0.00091589	0.100508
42625	-0.000896816	0.0938226
42817	-0.00101126	0.0889507
43009	-0.000954038	0.0857066
43201	1.49941	105.689
43393	1.49953	5.89503
43585	1.49945	3.90721
43777	1.49949	3.04151
43969	1.49947	2.43541
44161	1.49951	2.17178
44353	1.49959	2.06186
44545	1.4994	1.89125
44737	1.4997	1.85849
44929	1.49941	1.79378
45121	-0.00104941	-0.107426
45313	-0.000992187	-0.0254039
45505	-0.000877742	-0.00835432
45697	-0.000782372	-0.000725956
45889	-0.00103033	0.0038049
46081	-0.000992187	0.00631041
46273	-0.000877742	0.0083981
46465	-0.000896816	0.00988471
46657	-0.00091589	0.0109926
46849	-0.00091589	0.0117014
47041	-0.00101126	0.0125371
47233	-0.000763297	0.0133797
47425	-0.000858668	0.0136772
47617	-0.00103033	0.0139688
47809	-0.00091589	0.0147796
48001	-0.000801446	0.0149914
48193	-0.000954038	0.0153519
48385	-0.00091589	0.00950191
48577	-0.00091589	0.0093518
48769	-0.00104941	0.00939603
48961	-0.00101126	0.0101482
49153	-0.00106848	0.00980883
49345	-0.000934964	0.00993979
49537	-0.000877742	0.0104903
49729	-0.000858668	0.0101061
49921	-0.000877742	0.0101692
50113	-0.000725149	0.0107897
50305	-0.000992187	0.0104473
50497	-0.000858668	0.0105623
50689	-0.00091589	0.0108501
50881	-0.00091589	0.010614
51073	-0.000934964	0.0107017
51265	-0.00091589	0.0109165
51457	-0.000858668	0.010748
51649	-0.00104941	0.0108914
51841	-0.000896816	0.0109396
52033	-0.000877742	0.0108965
52225	-0.000877742	0.0109566
52417	-0.000877742	0.0109118
52609	-0.000954038	0.0109894
52801	-0.000934964	0.0109085
52993	-0.000763297	0.0108238
53185	-0.000896816	0.0109791
53377	-0.000992187	0.0109645
53569	-0.000973113	0.0107851
53761	-0.000934964	0.0110682
53953	-0.00101126	0.0108259
54145	-2.00097	-6.41779
54337	-2.00089	-3.52497
54529	-2.00084	-2.66905
54721	-2.00093	-2.27708
54913	-0.000896816	8.39085
55105	-0.000896816	0.346538
55297	-0.000992187	0.222527
55489	-0.000839594	0.176788
55681	-0.00082052	0.149242
55873	-0.00091589	0.131811
56065	-0.000896816	0.1198
56257	-0.000992187	0.108326
56449	-0.00091589	0.100229
56641	-0.000954038	0.0942048
56833	-0.000954038	0.0876488
57025	-0.000992187	0.0829919
57217	-0.00082052	0.0793335
57409	-0.000877742	0.075105
57600	-0.00101126	0.0718035