Folder: Nickel_Dithiolene_Research_Experimental_Data/Data_32_Experiment

Note: README.md
# Nickel_Dithiolene_Research_Experimental_Data
Init_Data
This is a data repository that support the findings in the manuscript "Electrochemically Modulated Separation of Olefin-Paraffin Gas Mixtures in Membrane Electrode Assemblies". All uploaded codes use Matlab software version 2022A or above. All codes can be run on operating system windows 10 or above on any PC with sufficient memory to run Matlab. Refer to the System Requirements Page for Matlab at https://www.mathworks.com/support/requirements/matlab-system-requirements.html for further information.

On matlab, run the script "Graph_Results_Summary_v01" to plot all relevant graphs that are shown in the main manuscript. Further details including Gas Chromatographs of all experimental recordings can be found in individual numbered data folder. To find the appropriate data folder, refer to the excel spreadsheet "Result_Summary" which contains tables of summary data. Each column is labeled by the data folder number to which it pertains to.

In each data folder, it contains all appropriate raw chromatograph data from the MIcro GC 990 as ASCII file in "Compiled_Data" folder. Matlab codes used to analyze the gas chromatographs and chronoamperometry data are also included in each numbered data folder. To output and analyze the raw chromatograph data, run the script "Micro_GC_990_Data_Spreadsheet_Summary_v01". Be sure to edit the path_address within the Matlab script to direct the code to analyze the raw files from the appropriate address in your computer (e.g. C:\Users\Default\Documents\Compiled_Data\). To output the graphs shown in the Supplementary Information, run the script MEA_Experimental_Result_v01. Raw Chronoamperometry data (as text file) from the Potentiostat is included in each numbered data folder.

File: CA_001_C01.txt
time/s	Ewe/V	<I>/mA
1	1.49955	242.007
205	1.4996	9.07804
409	1.49959	9.93999
613	1.49943	10.4574
817	1.49957	10.6201
1021	1.49953	10.3429
1225	1.49953	9.7126
1429	1.49949	9.03289
1633	1.49934	8.38871
1837	1.4997	7.84603
2041	1.4994	7.33549
2245	1.49955	6.81265
2449	1.49962	6.29234
2653	1.49957	5.73017
2856.95	-0.000916701	0.261359
3060.95	-0.000897627	0.169551
3264.95	-0.00103115	0.135298
3468.95	-0.000973923	0.0926232
3672.95	-0.00103115	0.0890814
3876.95	-0.000935775	0.0575025
4080.95	-0.000859479	0.0619953
4284.95	-0.000897627	0.0592494
4488.95	-0.000935775	0.0507231
4692.95	-0.000802256	0.0543604
4896.95	-0.000859479	0.0409741
5100.95	-0.000935775	0.0457537
5304.95	-0.000783182	0.0435372
5508.95	-0.000878553	0.0391947
5712.95	-0.000897627	0.0437289
5916.95	-0.00103115	0.0356944
6120.95	-0.000878553	0.0403078
6324.95	-0.000897627	0.0391875
6528.95	-0.000802256	0.0368697
6732.95	-0.000916701	0.0397549
6936.95	-0.000954849	0.0344381
7140.95	-0.000859479	0.0382865
7344.95	-0.000859479	0.0368671
7548.95	-0.000935775	0.0362248
7752.95	-0.000935775	0.038714
7956.95	-0.000897627	0.0348805
8160.95	-0.00082133	0.0366714
8364.95	-0.000878553	0.0349667
8568.95	-0.000840404	0.0345016
8772.95	-0.00105022	0.0352983
8976.95	-0.000992997	0.0327192
9180.95	-0.00105022	0.0345395
9384.95	-0.000973923	0.033132
9588.95	-0.000973923	0.0333824
9792.95	-0.000859479	0.0352388
9996.95	-0.000859479	0.0323786
10201	-0.000878553	0.0345257
10405	-0.000840404	0.0328894
10609	-0.000916701	0.0335823
10813	-0.000840404	0.0348138
11017	-0.000897627	0.0330043
11221	-0.00101207	0.0338659
11425	-0.000954849	0.0323581
11629	-0.000935775	0.0329682
11833	-2.00089	-23.7535
12037	-2.00091	-8.62183
12241	-2.00091	-5.22208
12445	-2.00072	-4.04184
12649	-0.000916701	2.61071
12853	-0.000840404	1.17752
13057	-0.000878553	0.912602
13261	-0.000935775	0.787259
13465	-0.000840404	0.682584
13669	-0.000935775	0.61721
13873	-0.00101207	0.573127
14077	-0.000916701	0.515603
14281	-0.000859479	0.483225
14485	-0.000802256	0.442331
14689	-0.00082133	0.416938
14893	-0.000897627	0.396859
15097	-0.000878553	0.368633
15301	1.49932	329.862
15505	1.49962	10.6358
15709	1.49955	8.63756
15913	1.49951	7.6318
16117	1.49957	6.97402
16321	1.49951	6.4113
16525	1.4997	5.90634
16729	1.49959	5.41534
16933	1.49957	4.91189
17137	1.49945	4.38727
17341	1.49957	3.81324
17545	1.49951	3.27406
17749	1.49951	2.8101
17953	1.4997	2.46122
18157	-0.000916701	-0.039043
18361	-0.000859479	-0.00306147
18565	-0.000935775	0.00870171
18769	-0.00082133	0.0200688
18973	-0.000992997	0.0236455
19177	-0.000954849	0.0292855
19381	-0.000973923	0.033734
19585	-0.00101207	0.0333529
19789	-0.000954849	0.0362926
19993	-0.000840404	0.0354323
20197	-0.00082133	0.0374083
20401	-0.000878553	0.0395674
20605	-0.00103115	0.0380898
20809	-0.000992997	0.0393953
21013	-0.000897627	0.0378216
21217	-0.000859479	0.0386221
21421	-0.00082133	0.0402223
21625	-0.000897627	0.0383113
21829	-0.000954849	0.038754
22033	-0.00103115	0.0372105
22237	-0.000935775	0.0375424
22441	-0.000954849	0.0383127
22645	-0.00101207	0.0367793
22849	-0.000878553	0.0373188
23053	-0.000878553	0.035192
23257	-0.000954849	0.03545
23461	-0.000992997	0.0354032
23665	-0.000954849	0.0347243
23869	-0.000878553	0.0349442
24073	-0.000935775	0.0328751
24277	-0.000992997	0.0327973
24481	-0.000802256	0.0332358
24685	-0.000973923	0.0319179
24889	-0.000954849	0.0323539
25093	-0.000916701	0.0307722
25297	-0.000897627	0.0308131
25501	-0.000954849	0.0301282
25705	-0.000954849	0.0297547
25909	-0.000992997	0.0305074
26113	-0.00101207	0.028583
26317	-0.000935775	0.0286558
26521	-0.000840404	0.0280908
26725	-0.000973923	0.0276836
26929	-0.00082133	0.0285239
27133	-2.00093	-16.0563
27337	-2.00099	-6.62922
27541	-2.00091	-4.08963
27745	-2.00078	-3.00761
27949	-0.000859479	2.26176
28153	-0.000859479	0.677104
28357	-0.000859479	0.486132
28561	-0.000935775	0.38242
28765	-0.000878553	0.326998
28969	-0.000916701	0.295921
29173	-0.000916701	0.267644
29377	-0.000859479	0.256144
29581	-0.000992997	0.240037
29785	-0.000916701	0.232847
29989	-0.000973923	0.227706
30193	-0.000859479	0.217591
30397	-0.000973923	0.214278
30601	1.49947	234.524
30805	1.49953	7.02753
31009	1.49955	5.91211
31213	1.49964	5.46456
31417	1.49941	5.02758
31621	1.49964	4.60868
31825	1.49955	4.09539
32029	1.4996	3.49012
32233	1.49962	2.80211
32437	1.49957	2.20247
32641	1.49949	2.05191
32845	1.49951	1.90659
33049	1.49962	1.93935
33253	1.49949	1.78051
33457	-0.000935775	-0.0992653
33661	-0.00082133	-0.030608
33865	-0.000954849	-0.0104324
34069	-0.00101207	-0.000147436
34273	-0.000783182	0.00729872
34477	-0.000764108	0.0126724
34681	-0.000992997	0.0146592
34885	-0.000859479	0.0182298
35089	-0.000859479	0.0196274
35293	-0.000840404	0.0211597
35497	-0.000878553	0.0232159
35701	-0.000897627	0.0227862
35905	-0.000745034	0.0238991
36109	-0.00103115	0.0243242
36313	-0.000897627	0.0248398
36517	-0.000935775	0.0259695
36721	-0.000783182	0.0253555
36925	-0.000935775	0.0254135
37129	-0.000935775	0.0257341
37333	-0.00103115	0.0262613
37537	-0.000935775	0.0270938
37741	-0.000954849	0.0264178
37945	-0.000954849	0.0267027
38149	-0.000916701	0.0261319
38353	-0.000954849	0.0266328
38557	-0.000878553	0.0271033
38761	-0.000992997	0.0263071
38965	-0.000764108	0.0265135
39169	-0.000878553	0.0258026
39373	-0.000878553	0.0257211
39577	-0.000764108	0.0260066
39781	-0.000935775	0.0254341
39985	-0.000840404	0.0257928
40189	-0.000916701	0.0248768
40393	-0.000897627	0.0248415
40597	-0.00101207	0.0249183
40801	-0.000973923	0.0245233
41005	-0.00103115	0.0251244
41209	-0.00082133	0.0241081
41413	-0.000840404	0.0240274
41617	-0.000878553	0.0237405
41821	-0.000973923	0.0235521
42025	-0.00082133	0.0240598
42229	-0.000783182	0.0229374
42433	-2.00082	-11.0385
42637	-2.00082	-4.78824
42841	-2.00082	-3.14052
43045	-2.00087	-2.4265
43249	-0.000802256	2.11035
43453	-0.00082133	0.592069
43657	-0.000878553	0.415543
43861	-0.000840404	0.333976
44065	-0.000840404	0.2846
44269	-0.000706886	0.243333
44473	-0.00082133	0.218765
44677	-0.000878553	0.195279
44881	-0.000878553	0.180688
45085	-0.000897627	0.169989
45289	-0.00101207	0.158501
45493	-0.000897627	0.152821
45697	-0.000859479	0.145632
45901	1.49947	172.503
46105	1.49945	6.13834
46309	1.49959	4.62181
46513	1.49945	3.49427
46717	1.49953	2.61216
46921	1.49955	2.31935
47125	1.49943	2.25994
47329	1.4996	2.02989
47533	1.49945	1.93318
47737	1.49951	1.80362
47941	1.49957	1.69789
48145	1.4996	1.65374
48349	1.49959	1.56645
48553	1.49955	1.52823
48757	-0.000935775	-0.128387
48961	-0.000992997	-0.0375071
49165	-0.000878553	-0.0149755
49369	-0.000954849	-0.00474931
49573	-0.00105022	0.00240969
49777	-0.000783182	0.00538213
49981	-0.00106929	0.00823961
50185	-0.00108837	0.0104931
50389	-0.00103115	0.0120972
50593	-0.000973923	0.014411
50797	-0.000935775	0.0142873
51001	-0.000878553	0.0152281
51205	-0.000916701	0.0158065
51409	-0.000897627	0.0162164
51613	-0.000897627	0.0175909
51817	-0.000878553	0.0171179
52021	-0.000935775	0.0174836
52225	-0.000973923	0.0175848
52429	-0.000916701	0.0178443
52633	-0.00101207	0.0188577
52837	-0.000916701	0.0181421
53041	-0.000973923	0.0184143
53245	-0.00101207	0.0180557
53449	-0.000916701	0.0182508
53653	-0.000973923	0.0189654
53857	-0.000935775	0.0181801
54061	-0.00101207	0.0183604
54265	-0.00105022	0.0179441
54469	-0.000954849	0.0180201
54673	-0.00103115	0.0185268
54877	-0.000878553	0.0179526
55081	-0.000840404	0.018299
55285	-0.000992997	0.0177612
55489	-0.00082133	0.0176492
55693	-0.000897627	0.0177406
55897	-0.000802256	0.0175686
56101	-0.000897627	0.0180045
56305	-0.000783182	0.0173594
56509	-0.000992997	0.0170285
56713	-0.000783182	0.017166
56917	-0.000783182	0.0169615
57121	-0.000840404	0.0175849
57325	-0.000878553	0.0167746
57529	-0.000897627	0.0166628
57733	-2.00091	-7.68959
57937	-2.0008	-3.54739
58141	-2.0008	-2.47813
58345	-2.00089	-1.99052
58549	-0.000935775	2.06554
58753	-0.000916701	0.505807
58957	-0.000916701	0.353832
59161	-0.00105022	0.283383
59365	-0.00101207	0.233194
59569	-0.000935775	0.201848
59773	-0.000840404	0.175641
59977	-0.000764108	0.157251
60181	-0.000916701	0.143736
60385	-0.000802256	0.130365
60589	-0.000916701	0.12247
60793	-0.000935775	0.114666
60997	-0.000992997	0.109234
61200	-0.000802256	0.103342