Folder: Nickel_Dithiolene_Research_Experimental_Data/Data_17_Experiment

Note: README.md
# Nickel_Dithiolene_Research_Experimental_Data
Init_Data
This is a data repository that support the findings in the manuscript "Electrochemically Modulated Separation of Olefin-Paraffin Gas Mixtures in Membrane Electrode Assemblies". All uploaded codes use Matlab software version 2022A or above. All codes can be run on operating system windows 10 or above on any PC with sufficient memory to run Matlab. Refer to the System Requirements Page for Matlab at https://www.mathworks.com/support/requirements/matlab-system-requirements.html for further information.

On matlab, run the script "Graph_Results_Summary_v01" to plot all relevant graphs that are shown in the main manuscript. Further details including Gas Chromatographs of all experimental recordings can be found in individual numbered data folder. To find the appropriate data folder, refer to the excel spreadsheet "Result_Summary" which contains tables of summary data. Each column is labeled by the data folder number to which it pertains to.

In each data folder, it contains all appropriate raw chromatograph data from the MIcro GC 990 as ASCII file in "Compiled_Data" folder. Matlab codes used to analyze the gas chromatographs and chronoamperometry data are also included in each numbered data folder. To output and analyze the raw chromatograph data, run the script "Micro_GC_990_Data_Spreadsheet_Summary_v01". Be sure to edit the path_address within the Matlab script to direct the code to analyze the raw files from the appropriate address in your computer (e.g. C:\Users\Default\Documents\Compiled_Data\). To output the graphs shown in the Supplementary Information, run the script MEA_Experimental_Result_v01. Raw Chronoamperometry data (as text file) from the Potentiostat is included in each numbered data folder.

File: CA_001_C01.txt
time/s	Ewe/V	<I>/mA
1	1.49942	374.986
193	1.49958	19.0457
385	1.49919	11.8224
577	1.49921	8.53874
769	1.49948	6.72362
961	1.49963	5.50181
1153	1.49939	4.61919
1345	1.49948	4.01765
1537	1.49946	3.53949
1729	1.49895	3.1456
1920.95	-0.000754523	0.37217
2112.95	-0.000563782	0.15024
2304.95	-0.000983412	0.105233
2496.95	-0.00105971	0.0625793
2688.95	-0.00105971	0.0593643
2880.95	-0.000621005	0.0587576
3072.95	-0.0012123	0.0453188
3264.95	-0.00104063	0.0461204
3456.95	-0.00104063	0.0495473
3648.95	-0.00117415	0.0393358
3840.95	-0.000964338	0.0391979
4032.95	-0.000697301	0.0439509
4224.95	-0.00119323	0.0364703
4416.95	-0.00140304	0.0379862
4608.95	-0.000868968	0.0418479
4800.95	-0.000888042	0.0348874
4992.95	-0.00105971	0.0356445
5184.95	-0.000983412	0.039613
5376.95	-0.000888042	0.0350522
5568.95	-0.00132675	0.0350338
5760.95	-0.000811746	0.0368879
5952.95	-0.00104063	0.0365495
6144.95	-0.000888042	0.0354027
6336.95	-0.000659153	0.037231
6528.95	-0.00105971	0.0357469
6720.95	-0.000849894	0.0342621
6912.95	-0.00111693	0.0358949
7104.95	-0.000964338	0.0355796
7296.95	-0.000792671	0.033488
7488.95	-0.0012123	0.0347539
7680.95	-0.00102156	0.035376
7872.95	-0.000907116	0.0328973
8064.95	-0.00083082	0.033709
8256.95	-0.00100249	0.0357765
8448.95	-0.00102156	0.0324828
8640.95	-0.00111693	0.0330289
8832.95	-0.000983412	0.0346316
9024.95	-0.00107878	0.0316676
9216.95	-0.00113601	0.0323773
9408.95	-0.00105971	0.0339311
9600.95	-0.000983412	0.0309022
9792.95	-0.00119323	0.0313616
9984.95	-0.00109786	0.0325248
10177	-0.000964338	0.0304712
10369	-0.00111693	0.0307146
10561	-0.000849894	0.0320553
10753	-0.000888042	0.0310118
10945	-0.500725	-0.417703
11137	-0.500916	-0.24699
11329	-0.500515	-0.187878
11521	-0.500782	-0.156256
11713	-0.00111693	1.96495
11905	-0.000888042	0.177937
12097	-0.000640079	0.0994479
12289	-0.000964338	0.0745775
12481	-0.000907116	0.0618082
12673	-0.00113601	0.0535916
12865	-0.000888042	0.0472645
13057	-0.00100249	0.0452026
13249	-0.000773597	0.04064
13441	-0.00100249	0.0396505
13633	-0.00134582	0.0394816
13825	-0.000868968	0.0374675
14017	-0.00107878	0.0363933
14209	-0.00105971	0.0352034
14401	1.49954	109.085
14593	1.4994	4.84052
14785	1.49933	3.63376
14977	1.49929	2.99306
15169	1.49952	2.54927
15361	1.49921	2.23782
15553	1.49927	2.03137
15745	1.49933	1.86942
15937	1.49923	1.71841
16129	1.49954	1.63631
16321	-0.00100249	0.131151
16513	-0.00123138	0.066565
16705	-0.00115508	0.0413531
16897	-0.00092619	0.0350046
17089	-0.0012123	0.0327565
17281	-0.00102156	0.0304646
17473	-0.000678227	0.0291628
17665	-0.000983412	0.0294113
17857	-0.00107878	0.0282529
18049	-0.000945264	0.0273382
18241	-0.000868968	0.0271006
18433	-0.000773597	0.0270298
18625	-0.00104063	0.0257803
18817	-0.000716375	0.0258474
19009	-0.000907116	0.0255623
19201	-0.00111693	0.0252526
19393	-0.00102156	0.0251154
19585	-0.00107878	0.025
19777	-0.000868968	0.0237348
19969	-0.00132675	0.0236049
20161	-0.00107878	0.0243946
20353	-0.000792671	0.0219617
20545	-0.00109786	0.0231025
20737	-0.000754523	0.0232867
20929	-0.00113601	0.0219264
21121	-0.000849894	0.022338
21313	-0.00107878	0.0227531
21505	-0.00105971	0.0213808
21697	-0.00102156	0.022073
21889	-0.00107878	0.021964
22081	-0.0012123	0.0211965
22273	-0.000868968	0.0214
22465	-0.000773597	0.0216854
22657	-0.00147934	0.0211281
22849	-0.000563782	0.021027
23041	-0.00115508	0.0213411
23233	-0.00109786	0.0210014
23425	-0.00123138	0.0205621
23617	-0.000964338	0.0204707
23809	-0.00100249	0.0210357
24001	-0.00102156	0.0202901
24193	-0.00107878	0.0203945
24385	-0.00111693	0.0206433
24577	-0.00083082	0.0198389
24769	-0.00083082	0.0202305
24961	-0.000945264	0.0202644
25153	-0.00126952	0.0195993
25345	-0.501068	-0.305728
25537	-0.501068	-0.177488
25729	-0.500839	-0.130857
25921	-0.500897	-0.106582
26113	-0.00113601	1.41862
26305	-0.00119323	0.13218
26497	-0.0012123	0.0753553
26689	-0.00104063	0.0563424
26881	-0.000983412	0.0462653
27073	-0.000964338	0.0407604
27265	-0.00115508	0.0370681
27457	-0.00155564	0.0338481
27649	-0.000697301	0.0319753
27841	-0.000888042	0.0309039
28033	-0.000964338	0.0294091
28225	-0.00104063	0.0280384
28417	-0.00104063	0.0269653
28609	-0.00117415	0.0264082
28801	1.49916	82.2422
28993	1.49885	2.19395
29185	1.49967	1.83381
29377	1.49887	1.69296
29569	1.49914	1.56356
29761	1.49963	1.53439
29953	1.49931	1.52557
30145	1.49931	1.45396
30337	1.49902	1.46739
30529	1.49902	1.47665
30721	-0.000945264	-0.0266372
30913	-0.00109786	0.0111262
31105	-0.00115508	0.0153525
31297	-0.00109786	0.0170369
31489	-0.000792671	0.0187335
31681	-0.00125045	0.0186016
31873	-0.00119323	0.0185963
32065	-0.00146027	0.0187394
32257	-0.00107878	0.0182849
32449	-0.000983412	0.0180405
32641	-0.00113601	0.018479
32833	-0.00107878	0.017751
33025	-0.00107878	0.0176141
33217	-0.00115508	0.0177795
33409	-0.000716375	0.0174987
33601	-0.00109786	0.0172013
33793	-0.00102156	0.0171371
33985	-0.00111693	0.0169033
34177	-0.00109786	0.016856
34369	-0.000964338	0.0166594
34561	-0.00105971	0.0163632
34753	-0.00092619	0.0163143
34945	-0.000868968	0.0161319
35137	-0.00125045	0.0161062
35329	-0.000945264	0.015791
35521	-0.00113601	0.0157708
35713	-0.00115508	0.0157769
35905	-0.00147934	0.015546
36097	-0.000735449	0.0154003
36289	-0.00104063	0.0156
36481	-0.00119323	0.0151037
36673	-0.00083082	0.0149769
36865	-0.00092619	0.0150769
37057	-0.00104063	0.014839
37249	-0.000907116	0.0146403
37441	-0.000659153	0.0148222
37633	-0.00134582	0.0144498
37825	-0.00092619	0.0143148
38017	-0.00109786	0.0145048
38209	-0.00107878	0.0142249
38401	-0.00109786	0.0141179
38593	-0.00092619	0.0142495
38785	-0.000964338	0.0139052
38977	-0.000983412	0.0140226
39169	-0.00102156	0.0140289
39361	-0.000888042	0.0137817
39553	-0.00102156	0.0136229
39745	-0.501259	-0.24552
39937	-0.500858	-0.142804
40129	-0.500801	-0.104349
40321	-0.500725	-0.0837532
40513	-0.00102156	1.07082
40705	-0.000868968	0.102946
40897	-0.000811746	0.0588181
41089	-0.000888042	0.0438374
41281	-0.000983412	0.0362131
41473	-0.00123138	0.031721
41665	-0.00117415	0.0288991
41857	-0.00102156	0.026381
42049	-0.00107878	0.024743
42241	-0.00130767	0.0235583
42433	-0.00107878	0.0222914
42625	-0.00134582	0.0213018
42817	-0.000678227	0.020848
43009	-0.00123138	0.0200044
43201	1.49923	79.5604
43393	1.49931	1.8334
43585	1.49931	1.65476
43777	1.49906	1.56993
43969	1.49944	1.49531
44161	1.4994	1.54674
44353	1.49946	1.52091
44545	1.49914	1.4549
44737	1.49921	1.52151
44929	1.49931	1.482
45121	-0.0012123	-0.0854409
45313	-0.00111693	-0.0100205
45505	-0.00113601	0.00382309
45697	-0.00104063	0.00924542
45889	-0.000945264	0.0115545
46081	-0.0012123	0.0126534
46273	-0.00092619	0.0133638
46465	-0.00115508	0.0138604
46657	-0.00060193	0.0139422
46849	-0.00119323	0.0139698
47041	-0.000849894	0.014126
47233	-0.000888042	0.0139954
47425	-0.00113601	0.0139231
47617	-0.00104063	0.01401
47809	-0.00107878	0.0137755
48001	-0.00104063	0.0135354
48193	-0.00109786	0.0137784
48385	-0.00119323	0.013423
48577	-0.00144119	0.013266
48769	-0.00125045	0.0135113
48961	-0.000811746	0.0130204
49153	-0.000907116	0.0129208
49345	-0.00102156	0.0130674
49537	-0.00105971	0.0128365
49729	-0.000907116	0.0126039
49921	-0.000888042	0.0128206
50113	-0.000868968	0.0123923
50305	-0.00105971	0.0122588
50497	-0.000868968	0.0124078
50689	-0.000716375	0.0121904
50881	-0.00115508	0.011989
51073	-0.00126952	0.0121216
51265	-0.000849894	0.0118358
51457	-0.00102156	0.0117987
51649	-0.00092619	0.0117458
51841	-0.0012886	0.0116967
52033	-0.000849894	0.0114119
52225	-0.000945264	0.0114534
52417	-0.00115508	0.0114746
52609	-0.00102156	0.0112725
52801	-0.000582856	0.0112401
52993	-0.000983412	0.0112754
53185	-0.000907116	0.0111323
53377	-0.000697301	0.0109665
53569	-0.00113601	0.0110614
53761	-0.000907116	0.0109308
53953	-0.00104063	0.0107792
54145	-0.501011	-0.221688
54337	-0.500782	-0.12837
54529	-0.501221	-0.0937948
54721	-0.50103	-0.0749529
54913	-0.00144119	0.899136
55105	-0.00111693	0.0882788
55297	-0.000907116	0.0508634
55489	-0.00107878	0.0374482
55681	-0.00119323	0.0307641
55873	-0.000964338	0.0270462
56065	-0.00126952	0.0240897
56257	-0.00104063	0.0221245
56449	-0.00111693	0.0207201
56641	-0.000964338	0.0194171
56833	-0.000792671	0.0184281
57025	-0.000773597	0.0176754
57217	-0.00100249	0.0169665
57409	-0.00092619	0.0163081
57600	-0.000945264	0.0159743