Folder: Nickel_Dithiolene_Research_Experimental_Data/Data_28_Experiment

Note: README.md
# Nickel_Dithiolene_Research_Experimental_Data
Init_Data
This is a data repository that support the findings in the manuscript "Electrochemically Modulated Separation of Olefin-Paraffin Gas Mixtures in Membrane Electrode Assemblies". All uploaded codes use Matlab software version 2022A or above. All codes can be run on operating system windows 10 or above on any PC with sufficient memory to run Matlab. Refer to the System Requirements Page for Matlab at https://www.mathworks.com/support/requirements/matlab-system-requirements.html for further information.

On matlab, run the script "Graph_Results_Summary_v01" to plot all relevant graphs that are shown in the main manuscript. Further details including Gas Chromatographs of all experimental recordings can be found in individual numbered data folder. To find the appropriate data folder, refer to the excel spreadsheet "Result_Summary" which contains tables of summary data. Each column is labeled by the data folder number to which it pertains to.

In each data folder, it contains all appropriate raw chromatograph data from the MIcro GC 990 as ASCII file in "Compiled_Data" folder. Matlab codes used to analyze the gas chromatographs and chronoamperometry data are also included in each numbered data folder. To output and analyze the raw chromatograph data, run the script "Micro_GC_990_Data_Spreadsheet_Summary_v01". Be sure to edit the path_address within the Matlab script to direct the code to analyze the raw files from the appropriate address in your computer (e.g. C:\Users\Default\Documents\Compiled_Data\). To output the graphs shown in the Supplementary Information, run the script MEA_Experimental_Result_v01. Raw Chronoamperometry data (as text file) from the Potentiostat is included in each numbered data folder.

File: CA_001_C01.txt
time/s	Ewe/V	<I>/mA
1	1.49909	93.6625
173	1.49911	22.2358
344.952	-0.000881474	0.606528
516.952	-0.000843327	0.424876
688.952	-0.000976845	0.203422
860.952	-0.000976845	0.137342
1032.95	-0.000862401	0.113521
1204.95	-0.000824252	0.0951856
1376.95	-0.000938697	0.0891363
1548.95	-0.00076703	0.0804356
1720.95	-0.000957771	0.0793356
1892.95	-0.000824252	0.0736694
2064.95	-0.000862401	0.0731193
2236.95	-0.000957771	0.0687972
2408.95	-0.000938697	0.0686239
2580.95	-0.000919623	0.0645272
2752.95	-0.000919623	0.0642079
2924.95	-0.000900549	0.0610749
3096.95	-0.000919623	0.0605313
3268.95	-0.000824252	0.0578814
3440.95	-0.000843327	0.0572079
3612.95	-0.000843327	0.0552198
3784.95	-0.000938697	0.0544073
3956.95	-0.000976845	0.0520665
4128.95	-0.000919623	0.0514498
4300.95	-0.000919623	0.0497485
4472.95	-0.000843327	0.0490472
4644.95	-0.00101499	0.0477222
4816.95	-0.000786104	0.0469754
4988.95	-0.000919623	0.0461217
5160.95	-0.000786104	0.0449342
5332.95	-0.000919623	0.0442985
5504.95	-0.000805178	0.0431234
5676.95	-0.000900549	0.0429107
5848.95	-0.000995919	0.0415903
6020.95	-0.000881474	0.0416159
6192.95	-0.000900549	0.0403183
6364.95	-0.000957771	0.0406201
6536.95	-0.000995919	0.0393681
6708.95	-0.000957771	0.039451
6880.95	-0.000843327	0.0392424
7052.95	-0.000957771	0.0391773
7224.95	-0.000881474	0.0379802
7396.95	-0.000995919	0.0378704
7568.95	-0.000919623	0.0368754
7740.95	-0.000862401	0.0373117
7912.95	-0.000919623	0.0361221
8084.95	-0.000843327	0.0363486
8256.95	-0.000862401	0.0354428
8428.95	-0.000805178	0.0355745
8600.95	-0.000900549	0.0347348
8772.95	-0.000938697	0.0350097
8944.95	-0.000976845	0.0341071
9116.95	-0.000862401	0.0342092
9288.95	-0.000900549	0.0334743
9460.97	-2.00078	-11.3129
9632.97	-2.00074	-6.46252
9804.97	-2.00095	-5.3207
9976.97	-2.00084	-4.90499
10149	-2.00084	-4.76478
10321	-0.000916701	2.03857
10493	-0.000878553	1.48561
10665	-0.000764108	1.25334
10837	-0.000954849	1.12135
11009	-0.000840404	1.02094
11181	-0.00082133	0.932431
11353	-0.000878553	0.857576
11525	-0.000859479	0.78355
11697	-0.000992997	0.723496
11869	-0.000897627	0.659853
12041	-0.000878553	0.609607
12213	-0.000802256	0.554394
12385	-0.000916701	0.507978
12557	-0.000897627	0.452849
12729	-0.000745034	0.410087
12901	1.49953	266.523
13073	1.49945	15.1243
13245	-0.000973923	-0.456883
13417	-0.000840404	0.473661
13589	-0.000954849	0.284489
13761	-0.000878553	0.215802
13933	-0.000935775	0.171747
14105	-0.000878553	0.144907
14277	-0.000802256	0.123933
14449	-0.000954849	0.110015
14621	-0.00106929	0.0985789
14793	-0.000935775	0.0896716
14965	-0.00108837	0.0826439
15137	-0.00108837	0.0762496
15309	-0.00082133	0.0718114
15481	-0.00082133	0.0668795
15653	-0.000878553	0.0638499
15825	-0.000802256	0.0598479
15997	-0.000783182	0.0576641
16169	-0.00105022	0.0544742
16341	-0.000935775	0.052871
16513	-0.000897627	0.0501618
16685	-0.000840404	0.0486236
16857	-0.000973923	0.0463441
17029	-0.000973923	0.0456048
17201	-0.000859479	0.0433784
17373	-0.000897627	0.0431351
17545	-0.00082133	0.0409556
17717	-0.000916701	0.0408743
17889	-0.00103115	0.0389168
18061	-0.000954849	0.0389883
18233	-0.000935775	0.0371381
18405	-0.000935775	0.0372411
18577	-0.000878553	0.0355217
18749	-0.00103115	0.0354699
18921	-0.000935775	0.0340361
19093	-0.000878553	0.0337607
19265	-0.000916701	0.0326397
19437	-0.00103115	0.0324515
19609	-0.000802256	0.0315562
19781	-0.000916701	0.030954
19953	-0.000878553	0.0305137
20125	-0.000878553	0.0298968
20297	-0.000954849	0.0296235
20469	-0.000859479	0.0289025
20641	-0.000916701	0.0287742
20813	-0.000935775	0.0280294
20985	-0.000916701	0.0279877
21157	-0.000897627	0.0273414
21329	-0.00101207	0.0272713
21501	-0.000973923	0.0266681
21673	-0.000935775	0.0267555
21845	-0.000802256	0.026052
22017	-0.000916701	0.0262598
22189	-0.000859479	0.025523
22361	-2.00103	-7.87555
22533	-2.00091	-4.79799
22705	-2.00076	-3.95431
22877	-2.00087	-3.54569
23049	-2.00093	-3.33006
23221	-0.000992997	1.64134
23393	-0.000783182	1.26038
23565	-0.000954849	1.04851
23737	-0.000992997	0.86667
23909	-0.000935775	0.72197
24081	-0.000897627	0.631837
24253	-0.000954849	0.567186
24425	-0.000859479	0.516933
24597	-0.000992997	0.474217
24769	-0.000992997	0.437773
24941	-0.000878553	0.408331
25113	-0.000954849	0.379162
25285	-0.000840404	0.356592
25457	-0.000802256	0.332577
25629	-0.000935775	0.314302
25801	1.49957	188.925
25973	1.49953	9.80362
26145	-0.000935775	-0.543713
26317	-0.00082133	0.331962
26489	-0.000897627	0.212445
26661	-0.000973923	0.16388
26833	-0.000992997	0.134455
27005	-0.000878553	0.116119
27177	-0.000859479	0.100815
27349	-0.000916701	0.091228
27521	-0.00101207	0.0809967
27693	-0.000897627	0.0751042
27865	-0.000878553	0.0681334
28037	-0.00082133	0.064025
28209	-0.000859479	0.0589901
28381	-0.000916701	0.056022
28553	-0.000859479	0.0521827
28725	-0.000935775	0.0498406
28897	-0.000973923	0.0469121
29069	-0.00108837	0.0448055
29241	-0.000916701	0.0428971
29413	-0.000840404	0.0409665
29585	-0.000897627	0.0395256
29757	-0.000897627	0.0378975
29929	-0.000897627	0.0368982
30101	-0.000897627	0.0354316
30273	-0.000954849	0.0346109
30445	-0.000859479	0.0332336
30617	-0.000973923	0.0326299
30789	-0.000973923	0.0314217
30961	-0.000878553	0.0309934
31133	-0.00106929	0.0298371
31305	-0.000783182	0.0295868
31477	-0.000802256	0.0284707
31649	-0.000764108	0.0284145
31821	-0.00103115	0.0272611
31993	-0.000954849	0.0273577
32165	-0.00082133	0.0262604
32337	-0.000897627	0.0263897
32509	-0.000973923	0.0251642
32681	-0.000973923	0.025338
32853	-0.000973923	0.0242172
33025	-0.000935775	0.024329
33197	-0.00082133	0.0235225
33369	-0.000935775	0.0233596
33541	-0.000802256	0.0227974
33713	-0.000840404	0.022563
33885	-0.000973923	0.022044
34057	-0.000935775	0.0218536
34229	-0.00101207	0.0214667
34401	-0.000783182	0.0210532
34573	-0.000897627	0.0208464
34745	-0.000935775	0.0205189
34917	-0.000916701	0.0203089
35089	-0.000859479	0.0199866
35261	-2.00093	-6.41482
35433	-2.00089	-4.16219
35605	-2.00093	-3.5496
35777	-2.00084	-3.2544
35949	-2.00087	-3.10773
36121	-0.000935775	1.40179
36293	-0.00101207	1.00951
36465	-0.00082133	0.839625
36637	-0.000935775	0.702486
36809	-0.00103115	0.572698
36981	-0.00101207	0.486908
37153	-0.000897627	0.422651
37325	-0.000840404	0.38474
37497	-0.000916701	0.35148
37669	-0.00105022	0.328432
37841	-0.000916701	0.30612
38013	-0.000897627	0.288832
38185	-0.000859479	0.272478
38357	-0.000992997	0.258165
38529	-0.000783182	0.245445
38701	1.49959	162.823
38873	1.49943	8.10783
39045	-0.000897627	-0.564957
39217	-0.000745034	0.255876
39389	-0.000897627	0.170745
39561	-0.000878553	0.129529
39733	-0.000916701	0.104749
39905	-0.000897627	0.0899796
40077	-0.000859479	0.0780605
40249	-0.000954849	0.0704173
40421	-0.000935775	0.0633363
40593	-0.000916701	0.0587621
40765	-0.000992997	0.0539286
40937	-0.000783182	0.0509019
41109	-0.000954849	0.0470658
41281	-0.000935775	0.0451461
41453	-0.000992997	0.0422236
41625	-0.000992997	0.0409448
41797	-0.00105022	0.0384227
41969	-0.000954849	0.0374484
42141	-0.000840404	0.0352836
42313	-0.00108837	0.0344453
42485	-0.000897627	0.0328118
42657	-0.000897627	0.0320283
42829	-0.000878553	0.0307214
43001	-0.000897627	0.0300317
43173	-0.000935775	0.0289795
43345	-0.000859479	0.0281426
43517	-0.000859479	0.0273646
43689	-0.00108837	0.0265629
43861	-0.000878553	0.0259851
44033	-0.000897627	0.0252731
44205	-0.000668738	0.0248279
44377	-0.000878553	0.0241214
44549	-0.000802256	0.0237605
44721	-0.000802256	0.0230606
44893	-0.000802256	0.0229124
45065	-0.000935775	0.0222349
45237	-0.000916701	0.0220996
45409	-0.000897627	0.0214287
45581	-0.000859479	0.0213849
45753	-0.00103115	0.0207251
45925	-0.00105022	0.0207078
46097	-0.000802256	0.0200644
46269	-0.00101207	0.0201377
46441	-0.000954849	0.0194571
46613	-0.000916701	0.0195487
46785	-0.000783182	0.0188659
46957	-0.000783182	0.0189417
47129	-0.000878553	0.0183158
47301	-0.00103115	0.0183436
47473	-0.00082133	0.0178051
47645	-0.000783182	0.0178043
47817	-0.000916701	0.0173991
47989	-0.000859479	0.0172722
48161	-2.00089	-5.57431
48333	-2.00095	-3.7391
48505	-2.00091	-3.2477
48677	-2.00095	-3.03908
48849	-2.00087	-2.95172
49021	-0.00101207	1.22301
49193	-0.000802256	0.804082
49365	-0.000878553	0.658458
49537	-0.000916701	0.54607
49709	-0.000954849	0.447417
49881	-0.000859479	0.383188
50053	-0.000878553	0.334148
50225	-0.000878553	0.304611
50397	-0.000897627	0.279284
50569	-0.000935775	0.263093
50741	-0.000954849	0.246
50913	-0.00105022	0.23437
51085	-0.000935775	0.221023
51257	-0.000840404	0.211971
51429	-0.000783182	0.201078
51600	-0.00101207	0.192072

File: CA_266_005_minutes_C01.txt
time/s	Ewe/V	<I>/mA
1	1.49945	299.822
49	1.49951	18.1047
97	1.49953	32.0087
145	1.49962	35.1822
193	1.49955	33.797
241	1.49955	30.6456
289	1.49947	27.1294
336.952	-0.000877742	-0.775337
384.952	-0.000858668	-0.0938115
432.952	-0.000934964	-0.027507
480.952	-0.000687001	-0.00570901
528.952	-0.000877742	0.00872623
576.952	-0.000877742	0.0164947
624.952	-0.00103033	0.0198778
672.952	-0.000801446	0.0199614
720.952	-0.000934964	0.0191326
768.952	-0.000896816	0.0189253
816.952	-0.000896816	0.0172398
864.952	-0.000839594	0.0158951
912.952	-0.00101126	0.0172189
960.952	-0.00106848	0.0181427
1008.95	-0.00082052	0.0184131
1056.95	-0.000934964	0.0180938
1104.95	-0.000973113	0.018206
1152.95	-0.000706075	0.0180403
1200.95	-0.000801446	0.0176552
1248.95	-0.000896816	0.0178022
1296.95	-0.000877742	0.0176099
1344.95	-0.000896816	0.0175629
1392.95	-0.00082052	0.017616
1440.95	-0.000973113	0.017636
1488.95	-0.000954038	0.0173697
1536.95	-0.00103033	0.0176609
1584.95	-0.00106848	0.0175016
1632.95	-0.000877742	0.017299
1680.95	-0.000954038	0.0177314
1728.95	-0.00091589	0.0179418
1776.95	-0.000896816	0.017391
1824.95	-0.000954038	0.0175279
1872.95	-0.000877742	0.017732
1920.95	-0.000954038	0.0174849
1968.95	-0.00106848	0.0179258
2016.95	-0.00091589	0.0181045
2064.95	-0.000934964	0.0177842
2112.95	-0.000992187	0.0177126
2160.95	-0.000934964	0.017877
2208.95	-0.000896816	0.0174154
2256.95	-0.00091589	0.0174192
2304.95	-0.000801446	0.0176366
2352.95	-0.00091589	0.0171807
2400.95	-0.00091589	0.017457
2448.95	-0.000782372	0.0177808
2496.95	-0.000858668	0.0170038
2544.95	-0.00082052	0.0170316
2592.95	-0.000877742	0.0173956
2640.95	-0.00091589	0.0167111
2688.95	-0.000896816	0.0167054
2736.95	-0.000877742	0.0169619
2784.95	-0.000973113	0.0162108
2832.95	-0.000877742	0.0163575
2880.95	-0.000744223	0.0167991
2928.95	-0.000801446	0.0161147
2976.95	-0.000934964	0.016001
3024.95	-0.00091589	0.0165393
3072.95	-0.000763297	0.0160336
3120.95	-0.000839594	0.0161991
3168.95	-0.000858668	0.0165842
3216.95	-0.000877742	0.0159842
3264.95	-0.000896816	0.0160632
3312.95	-0.000992187	0.0166051
3360.95	-0.000934964	0.0158979
3408.95	-0.000896816	0.0158613
3456.95	-0.000973113	0.0162428
3504.95	-0.000858668	0.0156941
3552.95	-0.000706075	0.0156636
3600.95	-0.000934964	0.0161362
3648.95	-0.000934964	0.0153802
3696.95	-0.000954038	0.0155825
3744.95	-0.000992187	0.0158188
3792.95	-0.000973113	0.0153219
3840.95	-0.000763297	0.0155091
3888.95	-0.000973113	0.0156287
3936.95	-0.000992187	0.0150934
3984.95	-0.00108756	0.0151266
4032.95	-0.000934964	0.0153687
4080.95	-0.000934964	0.0149031
4128.95	-0.00091589	0.0149774
4176.95	-0.00091589	0.0152861
4224.95	-0.000858668	0.0147566
4272.95	-0.00091589	0.0149211
4320.95	-0.000934964	0.015137
4368.95	-0.000954038	0.0149005
4416.95	-0.00103033	0.0148573
4464.95	-0.000934964	0.0148127
4512.95	-0.000934964	0.0143519
4560.95	-0.000896816	0.0144283
4608.95	-0.000839594	0.0144868
4656.95	-0.000839594	0.0139442
4704.95	-0.00106848	0.0139826
4752.95	-0.000858668	0.0141933
4800.95	-0.000801446	0.0136047
4848.95	-0.00091589	0.0137904
4896.95	-0.000877742	0.0139586
4944.95	-0.000973113	0.0136369
4992.95	-0.000858668	0.0136931
5040.95	-0.000877742	0.0138103
5088.95	-0.000858668	0.0133362
5136.95	-0.00091589	0.0133312
5184.95	-0.000954038	0.0133371
5232.95	-0.000896816	0.0131704
5280.95	-0.000782372	0.0132493
5328.95	-0.00082052	0.013333
5376.95	-0.000858668	0.0130939
5424.95	-0.000858668	0.0130946
5472.95	-0.000896816	0.0131612
5520.95	-0.000896816	0.0128685
5568.95	-0.00101126	0.0129629
5616.95	-0.000801446	0.0130377
5664.95	-0.00091589	0.0128456
5712.95	-0.00091589	0.0129882
5760.95	-0.00106848	0.0129132
5808.95	-0.00091589	0.0127951
5856.95	-0.000934964	0.0129301
5904.95	-0.00101126	0.0126908
5952.95	-0.000954038	0.0126206
6000.95	-0.000934964	0.0126209
6048.95	-0.000839594	0.0124627
6096.95	-0.000877742	0.0124456
6144.95	-0.000839594	0.0122871
6192.95	-0.000801446	0.01225
6240.95	-0.00103033	0.0122636
6288.95	-0.00091589	0.0121121
6336.95	-0.00104941	0.0122204
6384.95	-0.000839594	0.0119902
6432.95	-0.000973113	0.0120682
6480.95	-0.000934964	0.0120127
6528.95	-0.000954038	0.011689
6576.95	-0.000992187	0.0119231
6624.95	-0.000896816	0.0118965
6672.95	-0.00082052	0.0120229
6720.95	-0.000954038	0.0117848
6768.95	-0.000992187	0.0117503
6816.95	-0.000763297	0.011827
6864.95	-0.000858668	0.0116104
6912.95	-0.000877742	0.0115633
6960.95	-0.000801446	0.0115969
7008.95	-0.000801446	0.0114695
7056.95	-0.000896816	0.0114592
7104.95	-0.000877742	0.0115668
7152.95	-0.000934964	0.0113607
7200.95	-0.000839594	0.0113579
7248.95	-0.000782372	0.0115402
7296.95	-0.000877742	0.0111939
7344.95	-0.000954038	0.011221
7392.95	-0.000839594	0.0113071
7440.95	-0.000839594	0.0109406
7488.95	-0.000934964	0.0110158
7536.95	-0.000934964	0.0111893
7584.95	-0.000839594	0.0109237
7632.95	-0.00091589	0.0107983
7680.95	-0.00091589	0.0111016
7728.95	-0.000934964	0.0106889
7776.95	-0.000858668	0.0107627
7824.95	-0.000782372	0.0108997
7872.95	-0.000782372	0.0106046
7920.95	-0.000858668	0.0106308
7968.95	-0.000934964	0.0107467
8016.95	-0.000934964	0.0104029
8064.95	-0.000839594	0.0103805
8112.95	-0.000839594	0.0106128
8160.95	-0.00091589	0.010273
8208.95	-0.00082052	0.0102317
8256.95	-0.000896816	0.0104502
8304.95	-0.000839594	0.0101679
8352.95	-0.000858668	0.0102855
8400.95	-0.00103033	0.0105185
8448.95	-0.000725149	0.0100908
8496.95	-0.000934964	0.0101034
8544.95	-0.000896816	0.0102446
8592.95	-0.000973113	0.00992639
8640.95	-0.000858668	0.00987652
8688.95	-0.00082052	0.0101807
8736.95	-0.000896816	0.00971738
8784.95	-0.000858668	0.00972348
8832.95	-0.000858668	0.00991226
8880.95	-0.000744223	0.00953083
8928.95	-0.000992187	0.00957154
8976.95	-0.00104941	0.00967402
9024.95	-0.000858668	0.0093856
9072.95	-0.000782372	0.0093749
9120.95	-0.000877742	0.00944515
9168.95	-0.00082052	0.0090834
9216.95	-0.000744223	0.00923735
9264.95	-0.000877742	0.00939135
9312.95	-0.000954038	0.00876508
9360.95	-0.000744223	0.00897771
9408.95	-0.000954038	0.00919493
9456.95	-0.000896816	0.00883834
9504.95	-0.000877742	0.00884235
9552.95	-0.000839594	0.00902337
9600.95	-0.000858668	0.00860822
9648.95	-0.000839594	0.00851265
9696.95	-0.000858668	0.00883874
9744.95	-0.00091589	0.00843053
9792.95	-0.000839594	0.00852047
9840.95	-0.000896816	0.00857586
9888.95	-0.000896816	0.00841998
9936.95	-0.000973113	0.00849157
9984.95	-0.000877742	0.00871064
10033	-0.00091589	0.00830367
10081	-0.000877742	0.00826154
10129	-0.000801446	0.0085062
10177	-0.000877742	0.00824292
10225	-0.000973113	0.00827158
10273	-0.000801446	0.00835413
10321	-0.000839594	0.0082773
10369	-0.000934964	0.00822378
10417	-0.000839594	0.00826789
10465	-0.000763297	0.00803157
10513	-0.00091589	0.00819915
10561	-0.000896816	0.00810044
10609	-0.000954038	0.00795749
10657	-0.000801446	0.00794924
10705	-0.000858668	0.0080766
10753	-0.00091589	0.00789362
10801	-2.00085	-220.32
10849	-2.00089	-35.0962
10897	-2.00099	-16.7622
10945	-2.00095	-11.2092
10993	-2.00074	-8.70947
11041	-2.00093	-7.34123
11089	-2.00093	-6.55832
11137	-2.00085	-6.02908
11185	-2.00095	-5.6899
11233	-2.00089	-5.43057
11281	-2.0008	-5.26462
11329	-2.00093	-5.18588
11377	-2.00087	-5.0841
11425	-2.00093	-5.05332
11473	-2.00087	-5.02582
11521	-2.00093	-4.99987
11569	-2.00093	-5.02003
11617	-2.00072	-5.00415
11665	-2.00084	-5.00849
11713	-0.000973113	7.44694
11761	-0.000954038	1.58113
11809	-0.000992187	1.15594
11857	-0.00091589	1.00597
11905	-0.00082052	0.909857
11953	-0.000782372	0.838331
12001	-0.00091589	0.783945
12049	-0.000858668	0.731546
12097	-0.000896816	0.686458
12145	-0.000973113	0.647648
12193	-0.00091589	0.609163
12241	-0.000763297	0.575196
12289	-0.000954038	0.54569
12337	-0.000877742	0.516955
12385	-0.000877742	0.48996
12433	-0.000782372	0.464424
12481	-0.000896816	0.441366
12529	-0.000973113	0.420554
12577	-0.000839594	0.403016
12625	-0.000896816	0.386284
12673	-0.000934964	0.370335
12721	-0.000934964	0.356974
12769	-0.000896816	0.344339
12817	-0.00101126	0.332148
12865	-0.000858668	0.32194
12913	-0.000934964	0.312127
12961	-0.000954038	0.302791
13009	-0.000973113	0.294533
13057	-0.000992187	0.286911
13105	-0.00091589	0.27919
13153	-0.000973113	0.272806
13201	-0.00091589	0.266371
13249	-0.00103033	0.259401
13297	-0.000782372	0.254335
13345	-0.000858668	0.249473
13393	-0.000877742	0.243818
13441	-0.000973113	0.239189
13489	-0.000839594	0.23534
13537	-0.00103033	0.230368
13585	-0.000934964	0.226482
13633	-0.00103033	0.223219
13681	-0.000954038	0.219041
13729	-0.000839594	0.215705
13777	-0.00091589	0.213199
13825	-0.000858668	0.209351
13873	-0.00091589	0.206315
13921	-0.000858668	0.204641
13969	-0.000763297	0.200836
14017	-0.000877742	0.198241
14065	-0.000877742	0.196545
14113	-0.00082052	0.193118
14161	-0.00091589	0.191003
14209	-0.000801446	0.189552
14257	-0.000954038	0.186567
14305	-0.000858668	0.18433
14353	-0.000896816	0.183298
14400	-0.000877742	0.185297