Folder: Nickel_Dithiolene_Research_Experimental_Data/Data_29_Experiment

Note: README.md
# Nickel_Dithiolene_Research_Experimental_Data
Init_Data
This is a data repository that support the findings in the manuscript "Electrochemically Modulated Separation of Olefin-Paraffin Gas Mixtures in Membrane Electrode Assemblies". All uploaded codes use Matlab software version 2022A or above. All codes can be run on operating system windows 10 or above on any PC with sufficient memory to run Matlab. Refer to the System Requirements Page for Matlab at https://www.mathworks.com/support/requirements/matlab-system-requirements.html for further information.

On matlab, run the script "Graph_Results_Summary_v01" to plot all relevant graphs that are shown in the main manuscript. Further details including Gas Chromatographs of all experimental recordings can be found in individual numbered data folder. To find the appropriate data folder, refer to the excel spreadsheet "Result_Summary" which contains tables of summary data. Each column is labeled by the data folder number to which it pertains to.

In each data folder, it contains all appropriate raw chromatograph data from the MIcro GC 990 as ASCII file in "Compiled_Data" folder. Matlab codes used to analyze the gas chromatographs and chronoamperometry data are also included in each numbered data folder. To output and analyze the raw chromatograph data, run the script "Micro_GC_990_Data_Spreadsheet_Summary_v01". Be sure to edit the path_address within the Matlab script to direct the code to analyze the raw files from the appropriate address in your computer (e.g. C:\Users\Default\Documents\Compiled_Data\). To output the graphs shown in the Supplementary Information, run the script MEA_Experimental_Result_v01. Raw Chronoamperometry data (as text file) from the Potentiostat is included in each numbered data folder.

File: CA_001_C01.txt
time/s	Ewe/V	<I>/mA
1	1.49941	263.141
177	1.49943	6.89996
353	1.49949	9.04555
529	1.49941	10.5793
704.952	-0.000916701	1.05834
880.952	-0.00106929	0.544479
1056.95	-0.00082133	0.379495
1232.95	-0.000897627	0.296378
1408.95	-0.000840404	0.251771
1584.95	-0.000916701	0.226577
1760.95	-0.000935775	0.207969
1936.95	-0.000897627	0.194522
2112.95	-0.000764108	0.18567
2288.95	-0.000954849	0.177859
2464.95	-0.000859479	0.169491
2640.95	-0.000878553	0.160894
2816.95	-0.000878553	0.151443
2992.95	-0.000954849	0.142925
3168.95	-0.00106929	0.134964
3344.95	-0.00082133	0.128061
3520.95	-0.00108837	0.122945
3696.95	-0.000935775	0.117873
3872.95	-0.000973923	0.111342
4048.95	-0.000764108	0.105428
4224.95	-0.000954849	0.0994441
4400.95	-0.000935775	0.0952448
4576.95	-0.000878553	0.0910097
4752.95	-0.000878553	0.0869486
4928.95	-0.000859479	0.0837045
5104.95	-0.000954849	0.0810833
5280.95	-0.000954849	0.0781108
5456.95	-0.000764108	0.0751886
5632.95	-0.000897627	0.0733211
5808.95	-0.00082133	0.0701857
5984.95	-0.000859479	0.067469
6160.95	-0.000973923	0.0646941
6336.95	-0.000802256	0.0627934
6512.95	-0.000916701	0.0615035
6688.95	-0.00072596	0.0596272
6864.95	-0.000897627	0.0579239
7040.95	-0.000992997	0.0563986
7216.95	-0.000897627	0.0548554
7392.95	-0.00106929	0.0535159
7568.95	-0.000897627	0.0522944
7744.95	-0.000764108	0.0511969
7920.95	-0.000745034	0.0506315
8096.95	-0.00103115	0.0496901
8272.95	-0.000935775	0.048749
8448.95	-0.000916701	0.0477562
8624.95	-0.00101207	0.0467694
8800.95	-0.000706886	0.0458579
8976.95	-0.000916701	0.0458188
9152.95	-0.000935775	0.0448257
9328.95	-0.000935775	0.0447358
9504.95	-0.000916701	0.0440596
9680.96	-2.00087	-18.294
9856.96	-2.00093	-8.94113
10033	-2.00087	-7.63965
10209	-2.00093	-7.24825
10385	-2.00091	-7.24391
10561	-0.000840404	3.22739
10737	-0.000783182	1.98437
10913	-0.000878553	1.70096
11089	-0.000878553	1.49319
11265	-0.000916701	1.33185
11441	-0.000973923	1.19187
11617	-0.00108837	1.06923
11793	-0.000992997	0.957887
11969	-0.000973923	0.858871
12145	-0.000859479	0.769919
12321	-0.000897627	0.68346
12497	-0.000802256	0.594548
12673	-0.00072596	0.512078
12849	-0.000973923	0.434949
13025	-0.00101207	0.369085
13201	1.4996	269.447
13377	1.49953	17.9147
13553	1.49947	11.7764
13729	1.49951	9.26551
13905	-0.000992997	0.532476
14081	-0.000878553	0.221153
14257	-0.000878553	0.15245
14433	-0.000935775	0.128571
14609	-0.000992997	0.110863
14785	-0.000859479	0.0968205
14961	-0.000840404	0.0859843
15137	-0.00082133	0.0796907
15313	-0.00106929	0.075144
15489	-0.000992997	0.0691303
15665	-0.000878553	0.0641753
15841	-0.000916701	0.059948
16017	-0.00106929	0.0571755
16193	-0.000878553	0.0545846
16369	-0.00106929	0.0525755
16545	-0.00101207	0.0517075
16721	-0.000859479	0.0507932
16897	-0.00103115	0.0483329
17073	-0.000992997	0.0461878
17249	-0.00101207	0.0450242
17425	-0.000954849	0.044178
17601	-0.000992997	0.0429491
17777	-0.000992997	0.0412734
17953	-0.000897627	0.0409397
18129	-0.00103115	0.0411735
18305	-0.000783182	0.0400691
18481	-0.000840404	0.039085
18657	-0.000916701	0.0379649
18833	-0.000916701	0.0370441
19009	-0.00082133	0.0362699
19185	-0.000916701	0.0354625
19361	-0.000954849	0.0350497
19537	-0.000764108	0.0355198
19713	-0.000973923	0.0348595
19889	-0.000840404	0.0337183
20065	-0.000859479	0.0330156
20241	-0.000897627	0.0326222
20417	-0.000935775	0.0321856
20593	-0.000973923	0.031618
20769	-0.000954849	0.031313
20945	-0.000992997	0.0315584
21121	-0.000897627	0.0318123
21297	-0.00106929	0.0310812
21473	-0.000783182	0.0306729
21649	-0.000897627	0.0303686
21825	-0.000706886	0.0301217
22001	-0.000878553	0.0294956
22177	-0.000973923	0.029283
22353	-0.000916701	0.0295176
22529	-0.000954849	0.0296696
22705	-0.000859479	0.0287619
22881	-2.00087	-18.5394
23057	-2.00076	-6.25352
23233	-2.00091	-4.50193
23409	-2.00086	-3.80543
23585	-2.00091	-3.43684
23761	-0.000935775	2.46595
23937	-0.000916701	1.25685
24113	-0.00101207	0.985819
24289	-0.000802256	0.817603
24465	-0.000878553	0.714356
24641	-0.000935775	0.642864
24817	-0.00105022	0.588452
24993	-0.000916701	0.543077
25169	-0.000840404	0.505848
25345	-0.000992997	0.474736
25521	-0.000992997	0.447367
25697	-0.000859479	0.418552
25873	-0.000935775	0.394252
26049	-0.000878553	0.373754
26225	-0.000973923	0.355316
26401	1.49951	232.204
26577	1.49951	10.019
26753	1.49947	8.08181
26929	1.49945	7.35348
27105	-0.000840404	0.310437
27281	-0.000840404	0.219097
27457	-0.000840404	0.161317
27633	-0.000973923	0.134876
27809	-0.000935775	0.117627
27985	-0.000878553	0.10376
28161	-0.000916701	0.0936684
28337	-0.000783182	0.0870596
28513	-0.000878553	0.0797241
28689	-0.000954849	0.0724756
28865	-0.000897627	0.0671625
29041	-0.000745034	0.0627362
29217	-0.000973923	0.0589445
29393	-0.000859479	0.0556635
29569	-0.000897627	0.0529484
29745	-0.000878553	0.0516627
29921	-0.000897627	0.0489263
30097	-0.000745034	0.0463995
30273	-0.000897627	0.0445638
30449	-0.000668738	0.0428298
30625	-0.000878553	0.0412453
30801	-0.000859479	0.0398015
30977	-0.00105022	0.0387263
31153	-0.00101207	0.038312
31329	-0.000935775	0.0371882
31505	-0.000802256	0.0356828
31681	-0.000783182	0.0347005
31857	-0.00072596	0.0336855
32033	-0.000916701	0.0329145
32209	-0.000764108	0.0320931
32385	-0.000954849	0.0316098
32561	-0.00101207	0.0313514
32737	-0.000916701	0.0309668
32913	-0.00118374	0.030185
33089	-0.000840404	0.0292215
33265	-0.000878553	0.0285874
33441	-0.000687812	0.0279866
33617	-0.00105022	0.02745
33793	-0.00105022	0.0269488
33969	-0.000878553	0.02674
34145	-0.000973923	0.0268896
34321	-0.000935775	0.0261032
34497	-0.000764108	0.0254703
34673	-0.00110744	0.0251183
34849	-0.000897627	0.0247512
35025	-0.000878553	0.0242866
35201	-0.000706886	0.0238983
35377	-0.000935775	0.0237718
35553	-0.000764108	0.0239889
35729	-0.000935775	0.0236747
35905	-0.000935775	0.022969
36081	-2.00082	-13.971
36257	-2.00093	-5.40493
36433	-2.00107	-4.05107
36609	-2.00091	-3.51738
36785	-2.00095	-3.25163
36961	-0.00082133	2.17769
37137	-0.000840404	0.90769
37313	-0.000897627	0.673168
37489	-0.000916701	0.543204
37665	-0.00105022	0.464244
37841	-0.000859479	0.415358
38017	-0.000859479	0.379838
38193	-0.000916701	0.35271
38369	-0.000840404	0.332485
38545	-0.000802256	0.316863
38721	-0.000802256	0.300223
38897	-0.00082133	0.285157
39073	-0.00103115	0.272139
39249	-0.000992997	0.26108
39425	-0.000954849	0.251308
39601	1.49955	209.235
39777	1.49968	7.8324
39953	1.49951	6.40004
40129	1.49953	5.98879
40305	-0.000954849	0.174981
40481	-0.000897627	0.16101
40657	-0.00106929	0.123259
40833	-0.000840404	0.103835
41009	-0.000935775	0.0914468
41185	-0.000840404	0.0826741
41361	-0.000992997	0.0763241
41537	-0.000802256	0.0706784
41713	-0.000916701	0.0650285
41889	-0.00105022	0.0605986
42065	-0.000764108	0.0569191
42241	-0.000745034	0.0534345
42417	-0.000992997	0.0503642
42593	-0.000764108	0.0478958
42769	-0.000878553	0.046105
42945	-0.000878553	0.0445287
43121	-0.000802256	0.0421399
43297	-0.000802256	0.0402497
43473	-0.000954849	0.0386247
43649	-0.00101207	0.0372931
43825	-0.000954849	0.0358604
44001	-0.00105022	0.0347109
44177	-0.00103115	0.0339354
44353	-0.00105022	0.0335806
44529	-0.000954849	0.0322921
44705	-0.000783182	0.0311395
44881	-0.000897627	0.0301748
45057	-0.00108837	0.0293556
45233	-0.00105022	0.0285685
45409	-0.000916701	0.0280121
45585	-0.000687812	0.0274825
45761	-0.000897627	0.0273722
45937	-0.000859479	0.0267159
46113	-0.000783182	0.0258209
46289	-0.000802256	0.0253003
46465	-0.000992997	0.0247686
46641	-0.000992997	0.0243382
46817	-0.000954849	0.023819
46993	-0.000916701	0.0235339
47169	-0.000992997	0.0235786
47345	-0.000840404	0.0233408
47521	-0.000992997	0.0224987
47697	-0.000954849	0.0220537
47873	-0.000954849	0.021759
48049	-0.000840404	0.0214028
48225	-0.000783182	0.0210681
48401	-0.000859479	0.020935
48577	-0.000878553	0.0209603
48753	-0.00101207	0.020899
48929	-0.00108837	0.0202811
49105	-0.000840404	0.0198508
49281	-2.0008	-11.8795
49457	-2.00078	-4.8018
49633	-2.00068	-3.66577
49809	-2.0008	-3.25185
49985	-2.00086	-3.07266
50161	-0.000783182	2.06013
50337	-0.000783182	0.717983
50513	-0.000878553	0.51292
50689	-0.000859479	0.408321
50865	-0.000935775	0.348569
51041	-0.00106929	0.309605
51217	-0.000954849	0.282502
51393	-0.000935775	0.263084
51569	-0.00108837	0.249293
51745	-0.000916701	0.238235
51921	-0.00103115	0.226755
52097	-0.00106929	0.217522
52273	-0.000859479	0.209635
52449	-0.00103115	0.202671
52625	-0.00082133	0.195924
52800	-0.000916701	0.189797

File: CA_274_010_minutes_C01.txt
time/s	Ewe/V	<I>/mA
1	1.49951	73.385
45	1.49949	11.7345
89	1.49951	8.31833
133	1.49951	6.62371
177	1.49966	5.52126
221	1.49964	4.70097
265	1.49962	4.11876
309	1.49959	3.73875
353	1.49966	3.44606
397	1.49959	3.21188
441	1.49955	3.03101
485	1.49957	2.89331
529	1.49955	2.80951
573	1.49951	2.76904
616.952	-0.00091589	-1.05939
660.952	-0.000896816	-0.147109
704.952	-0.000877742	-0.054988
748.952	-0.000839594	-0.0274628
792.952	-0.000782372	-0.0140598
836.952	-0.00082052	-0.00622583
880.952	-0.000858668	-0.00129498
924.952	-0.000896816	0.00197753
968.952	-0.000801446	0.00450425
1012.95	-0.000839594	0.00623703
1056.95	-0.00091589	0.00744423
1100.95	-0.000839594	0.00859248
1144.95	-0.000839594	0.00937448
1188.95	-0.000858668	0.0101507
1232.95	-0.000782372	0.0108235
1276.95	-0.00082052	0.0111656
1320.95	-0.000973113	0.0115755
1364.95	-0.000954038	0.0118145
1408.95	-0.000896816	0.0120702
1452.95	-0.000954038	0.0121628
1496.95	-0.00082052	0.0122535
1540.95	-0.000858668	0.0124292
1584.95	-0.000896816	0.0125124
1628.95	-0.000782372	0.0124731
1672.95	-0.000801446	0.0126067
1716.95	-0.000782372	0.0126295
1760.95	-0.00103033	0.0126099
1804.95	-0.000801446	0.0126408
1848.95	-0.000896816	0.0125629
1892.95	-0.000782372	0.0125388
1936.95	-0.000896816	0.0126627
1980.95	-0.000934964	0.0126151
2024.95	-0.000877742	0.0125753
2068.95	-0.000744223	0.0126603
2112.95	-0.000763297	0.0125739
2156.95	-0.000839594	0.0126439
2200.95	-0.00091589	0.0126364
2244.95	-0.000973113	0.0125951
2288.95	-0.000801446	0.0126296
2332.95	-0.000839594	0.0125943
2376.95	-0.000744223	0.0124312
2420.95	-0.000877742	0.0124139
2464.95	-0.000896816	0.0122998
2508.95	-0.000896816	0.0122559
2552.95	-0.000667927	0.0122473
2596.95	-0.000839594	0.0120853
2640.95	-0.00091589	0.0120843
2684.95	-0.000839594	0.0120524
2728.95	-0.000934964	0.0119376
2772.95	-0.00082052	0.0119731
2816.95	-0.000973113	0.0119074
2860.95	-0.000858668	0.0118336
2904.95	-0.000896816	0.0118296
2948.95	-0.000934964	0.0117446
2992.95	-0.000954038	0.0117423
3036.95	-0.00091589	0.0116713
3080.95	-0.000763297	0.0116499
3124.95	-0.000763297	0.0115888
3168.95	-0.00104941	0.0115056
3212.95	-0.000992187	0.0114788
3256.95	-0.00082052	0.0113761
3300.95	-0.000877742	0.0113267
3344.95	-0.000782372	0.0112672
3388.95	-0.000782372	0.0112898
3432.95	-0.000877742	0.0112606
3476.95	-0.000744223	0.0113185
3520.95	-0.00082052	0.0112954
3564.95	-0.000839594	0.0111625
3608.95	-0.00091589	0.0112056
3652.95	-0.000992187	0.011173
3696.95	-0.000839594	0.0111689
3740.95	-0.00082052	0.0110634
3784.95	-0.000896816	0.0109777
3828.95	-0.000763297	0.0109211
3872.95	-0.000934964	0.0108338
3916.95	-0.000801446	0.0108338
3960.95	-0.000877742	0.0106525
4004.95	-0.000839594	0.010668
4048.95	-0.000858668	0.0105848
4092.95	-0.000801446	0.0105927
4136.95	-0.000858668	0.0105924
4180.95	-0.000934964	0.010594
4224.95	-0.000839594	0.0104355
4268.95	-0.000839594	0.010461
4312.95	-0.000954038	0.0105154
4356.95	-0.00091589	0.0104653
4400.95	-0.000801446	0.010367
4444.95	-0.000934964	0.0104062
4488.95	-0.000896816	0.0103459
4532.95	-0.000934964	0.0102944
4576.95	-0.000934964	0.0103059
4620.95	-0.000877742	0.0102458
4664.95	-0.000896816	0.0101874
4708.95	-0.000839594	0.0101634
4752.95	-0.00091589	0.0101221
4796.95	-0.000839594	0.0101327
4840.95	-0.00082052	0.0101035
4884.95	-0.000725149	0.010095
4928.95	-0.00082052	0.0100546
4972.95	-0.000877742	0.0101209
5016.95	-0.000782372	0.0100832
5060.95	-0.000934964	0.0101069
5104.95	-0.000858668	0.0100853
5148.95	-0.000782372	0.0100343
5192.95	-0.000763297	0.0100551
5236.95	-0.000782372	0.00997416
5280.95	-0.000725149	0.0099126
5324.95	-0.000839594	0.00988586
5368.95	-0.000934964	0.00976645
5412.95	-0.000973113	0.00969944
5456.95	-0.000763297	0.00975088
5500.95	-0.000934964	0.00975431
5544.95	-0.00091589	0.00968369
5588.95	-0.000877742	0.00960225
5632.95	-0.00082052	0.0095441
5676.95	-0.000934964	0.00962812
5720.95	-0.000934964	0.00958739
5764.95	-0.000782372	0.00959412
5808.95	-0.000896816	0.0095425
5852.95	-0.000877742	0.00952863
5896.95	-0.000896816	0.00955522
5940.95	-0.00082052	0.00953353
5984.95	-0.000725149	0.00950921
6028.95	-0.00101126	0.00943603
6072.95	-0.000801446	0.00950082
6116.95	-0.000706075	0.00942548
6160.95	-0.00091589	0.00939101
6204.95	-0.000858668	0.00932466
6248.95	-0.000839594	0.00929012
6292.95	-0.000858668	0.00932572
6336.95	-0.000744223	0.00933177
6380.95	-0.00101126	0.00931329
6424.95	-0.00103033	0.00921409
6468.95	-0.000877742	0.00937481
6512.95	-0.000839594	0.0093542
6556.95	-0.00091589	0.0092489
6600.95	-0.000763297	0.00933524
6644.95	-0.00082052	0.009288
6688.95	-0.000801446	0.00919248
6732.95	-0.00091589	0.00916586
6776.95	-0.000858668	0.00904467
6820.95	-0.000839594	0.00902512
6864.95	-0.000934964	0.00898018
6908.95	-0.000801446	0.00897078
6952.95	-0.000877742	0.00897858
6996.95	-0.000973113	0.00894154
7040.95	-0.000744223	0.00889229
7084.95	-0.000858668	0.0088995
7128.95	-0.000877742	0.0088702
7172.95	-0.000896816	0.00887276
7216.95	-0.000858668	0.00885995
7260.95	-0.000763297	0.00887554
7304.95	-0.000782372	0.00887844
7348.95	-0.000858668	0.0087768
7392.95	-0.00082052	0.00877706
7436.95	-0.000896816	0.00873359
7480.95	-0.000763297	0.00869863
7524.95	-0.000763297	0.0086894
7568.95	-0.00091589	0.00870342
7612.95	-0.000858668	0.00866488
7656.95	-0.000934964	0.00860958
7700.95	-0.00103033	0.00866346
7744.95	-0.000782372	0.00858602
7788.95	-0.00082052	0.00860997
7832.95	-0.000877742	0.00864106
7876.95	-0.000877742	0.00854613
7920.95	-0.000992187	0.00854591
7964.95	-0.000896816	0.00860112
8008.95	-0.00082052	0.00855526
8052.95	-0.000896816	0.00860087
8096.95	-0.000992187	0.00854427
8140.95	-0.000858668	0.00849991
8184.95	-0.000763297	0.00845862
8228.95	-0.000839594	0.00841061
8272.95	-0.000954038	0.00833732
8316.95	-0.000896816	0.00832587
8360.95	-0.00082052	0.00828663
8404.95	-0.000896816	0.00828668
8448.95	-0.000801446	0.00822229
8492.95	-0.000801446	0.00827738
8536.95	-0.000877742	0.00825668
8580.95	-0.000858668	0.00821735
8624.95	-0.000973113	0.00817688
8668.95	-0.00101126	0.00817579
8712.95	-0.000782372	0.00819996
8756.95	-0.000858668	0.00813324
8800.95	-0.00091589	0.00809089
8844.95	-0.000839594	0.00814203
8888.95	-0.000801446	0.00816182
8932.95	-0.000858668	0.00808548
8976.95	-0.00082052	0.00804785
9020.95	-0.000801446	0.00803855
9064.95	-0.000877742	0.00802891
9108.95	-0.000877742	0.00799994
9152.95	-0.000973113	0.0079376
9196.95	-0.000934964	0.00797549
9240.95	-0.000839594	0.00810186
9284.95	-0.000877742	0.00798167
9328.95	-0.000954038	0.0080062
9372.95	-0.00082052	0.00797864
9416.95	-0.000858668	0.00800859
9460.95	-0.000839594	0.00802895
9504.95	-0.000973113	0.00796997
9548.95	-0.00101126	0.00801094
9592.95	-0.00082052	0.00790107
9636.95	-2.00087	-12.3553
9680.95	-2.00082	-6.74674
9724.95	-2.00085	-5.0876
9768.95	-2.00074	-4.28504
9812.95	-2.00082	-3.78265
9856.95	-2.00087	-3.47957
9900.95	-2.00101	-3.22789
9944.95	-2.00074	-3.06126
9988.95	-2.00078	-2.9183
10033	-2.00091	-2.81377
10077	-2.00084	-2.73384
10121	-2.0008	-2.65183
10165	-2.00085	-2.57653
10209	-2.00095	-2.53803
10253	-2.00089	-2.4863
10297	-2.00084	-2.45423
10341	-2.00078	-2.40777
10385	-2.00085	-2.38846
10429	-2.00089	-2.34249
10473	-2.00074	-2.35605
10517	-0.000744223	4.73168
10561	-0.000877742	1.00124
10605	-0.00101126	0.565712
10649	-0.000763297	0.400966
10693	-0.000954038	0.316492
10737	-0.000934964	0.264649
10781	-0.000744223	0.230107
10825	-0.000744223	0.205308
10869	-0.000763297	0.186558
10913	-0.000934964	0.171818
10957	-0.000858668	0.160023
11001	-0.00091589	0.150084
11045	-0.000896816	0.141728
11089	-0.000744223	0.134562
11133	-0.00101126	0.128314
11177	-0.000687001	0.122758
11221	-0.000858668	0.117739
11265	-0.000858668	0.113302
11309	-0.000877742	0.109266
11353	-0.00082052	0.105363
11397	-0.000801446	0.102053
11441	-0.000877742	0.0990482
11485	-0.00082052	0.0962169
11529	-0.000839594	0.0935089
11573	-0.000782372	0.0910607
11617	-0.000801446	0.0886963
11661	-0.000896816	0.0864848
11705	-0.000954038	0.0843597
11749	-0.00091589	0.0824779
11793	-0.00082052	0.0806009
11837	-0.000877742	0.0788738
11881	-0.000801446	0.0772567
11925	-0.000954038	0.0756553
11969	-0.000725149	0.0742517
12013	-0.00091589	0.0729173
12057	-0.000877742	0.0715028
12101	-0.000973113	0.0702386
12145	-0.000782372	0.0691072
12189	-0.000763297	0.0678924
12233	-0.000744223	0.0669773
12277	-0.000877742	0.0659373
12321	-0.000896816	0.0649026
12365	-0.000896816	0.0640589
12409	-0.000877742	0.0631374
12453	-0.000839594	0.0621938
12497	-0.000839594	0.0613253
12541	-0.00091589	0.0605606
12585	-0.000801446	0.0596229
12629	-0.000877742	0.0588911
12673	-0.000877742	0.0581052
12717	-0.000896816	0.057382
12761	-0.000763297	0.0566952
12805	-0.000992187	0.0560775
12849	-0.000954038	0.0554682
12893	-0.000934964	0.0547833
12937	-0.000858668	0.0541278
12981	-0.000877742	0.0536854
13025	-0.000877742	0.0530949
13069	-0.000992187	0.0525759
13113	-0.000725149	0.0519855
13157	-0.000744223	0.0515464
13200	-0.00082052	0.0509584