Folder: Nickel_Dithiolene_Research_Experimental_Data/Data_31_Experiment

Note: README.md
# Nickel_Dithiolene_Research_Experimental_Data
Init_Data
This is a data repository that support the findings in the manuscript "Electrochemically Modulated Separation of Olefin-Paraffin Gas Mixtures in Membrane Electrode Assemblies". All uploaded codes use Matlab software version 2022A or above. All codes can be run on operating system windows 10 or above on any PC with sufficient memory to run Matlab. Refer to the System Requirements Page for Matlab at https://www.mathworks.com/support/requirements/matlab-system-requirements.html for further information.

On matlab, run the script "Graph_Results_Summary_v01" to plot all relevant graphs that are shown in the main manuscript. Further details including Gas Chromatographs of all experimental recordings can be found in individual numbered data folder. To find the appropriate data folder, refer to the excel spreadsheet "Result_Summary" which contains tables of summary data. Each column is labeled by the data folder number to which it pertains to.

In each data folder, it contains all appropriate raw chromatograph data from the MIcro GC 990 as ASCII file in "Compiled_Data" folder. Matlab codes used to analyze the gas chromatographs and chronoamperometry data are also included in each numbered data folder. To output and analyze the raw chromatograph data, run the script "Micro_GC_990_Data_Spreadsheet_Summary_v01". Be sure to edit the path_address within the Matlab script to direct the code to analyze the raw files from the appropriate address in your computer (e.g. C:\Users\Default\Documents\Compiled_Data\). To output the graphs shown in the Supplementary Information, run the script MEA_Experimental_Result_v01. Raw Chronoamperometry data (as text file) from the Potentiostat is included in each numbered data folder.

File: CA_001_C01.txt
time/s	Ewe/V	<I>/mA
1	1.49945	283.212
193	1.49934	23.5924
385	1.49966	17.6168
577	1.49938	15.0541
769	1.49947	13.3174
961	1.49945	11.6345
1153	1.49955	10.0068
1345	1.4994	8.53509
1537	1.49953	7.26723
1729	1.49962	6.20945
1920.95	-0.000878553	0.243553
2112.95	-0.00105022	0.100336
2304.95	-0.000859479	0.0908819
2496.95	-0.00106929	0.0807064
2688.95	-0.000973923	0.0569749
2880.95	-0.000954849	0.0547228
3072.95	-0.00103115	0.0528519
3264.95	-0.000935775	0.0396964
3456.95	-0.000992997	0.0385706
3648.95	-0.000802256	0.0398973
3840.95	-0.000859479	0.032354
4032.95	-0.000878553	0.0311255
4224.95	-0.000935775	0.033587
4416.95	-0.000878553	0.0292232
4608.95	-0.000954849	0.026979
4800.95	-0.00072596	0.0299166
4992.95	-0.000897627	0.0277495
5184.95	-0.00082133	0.0248866
5376.95	-0.000992997	0.0277449
5568.95	-0.000897627	0.0274274
5760.95	-0.000973923	0.0241959
5952.95	-0.00103115	0.0272387
6144.95	-0.000935775	0.0271308
6336.95	-0.00103115	0.0238428
6528.95	-0.000897627	0.0265871
6720.95	-0.000973923	0.0263712
6912.95	-0.000954849	0.0231279
7104.95	-0.00103115	0.0250303
7296.95	-0.000897627	0.0250891
7488.95	-0.000973923	0.0224264
7680.95	-0.000897627	0.0241754
7872.95	-0.000897627	0.0245152
8064.95	-0.000859479	0.0222436
8256.95	-0.000916701	0.0233032
8448.95	-0.000897627	0.0237852
8640.95	-0.00101207	0.0221853
8832.95	-0.000878553	0.0224921
9024.95	-0.000878553	0.0232159
9216.95	-0.000954849	0.022162
9408.95	-0.000973923	0.022083
9600.95	-0.000954849	0.0226397
9792.95	-0.00105022	0.02209
9984.95	-0.00105022	0.0215676
10177	-0.000897627	0.0223842
10369	-0.000916701	0.021963
10561	-0.00106929	0.0210452
10753	-0.000973923	0.0221582
10945	-2.00089	-21.0356
11137	-2.00099	-8.57009
11329	-2.00086	-5.14465
11521	-2.00089	-3.74313
11713	-0.000935775	9.0639
11905	-0.00082133	1.14921
12097	-0.000897627	0.891469
12289	-0.000992997	0.745193
12481	-0.000840404	0.67
12673	-0.000802256	0.623988
12865	-0.00101207	0.570253
13057	-0.000954849	0.536826
13249	-0.00101207	0.511917
13441	-0.000916701	0.475477
13633	-0.000840404	0.451598
13825	-0.000973923	0.432565
14017	-0.000840404	0.407889
14209	-0.00108837	0.38824
14401	1.49947	235.389
14593	1.49943	9.64709
14785	1.49945	7.83551
14977	1.49945	7.14634
15169	1.49953	6.69171
15361	1.49949	6.38045
15553	1.49962	6.08137
15745	1.49934	5.74958
15937	1.4996	5.44784
16129	1.49953	5.11422
16321	-0.000897627	0.122876
16513	-0.00082133	0.142538
16705	-0.000916701	0.120618
16897	-0.000897627	0.106457
17089	-0.000764108	0.0931755
17281	-0.00082133	0.0870921
17473	-0.00082133	0.0813872
17665	-0.000878553	0.0739122
17857	-0.000764108	0.0716485
18049	-0.000916701	0.0684849
18241	-0.000878553	0.063357
18433	-0.00101207	0.0618631
18625	-0.000878553	0.0598711
18817	-0.000916701	0.0560654
19009	-0.000859479	0.0551518
19201	-0.000954849	0.0538561
19393	-0.000897627	0.0510518
19585	-0.00101207	0.0500112
19777	-0.000916701	0.0485597
19969	-0.000878553	0.0463984
20161	-0.000878553	0.0456065
20353	-0.000840404	0.0447577
20545	-0.000802256	0.0433841
20737	-0.00105022	0.0417633
20929	-0.000878553	0.0412646
21121	-0.000954849	0.0402941
21313	-0.000859479	0.0387707
21505	-0.000954849	0.0382612
21697	-0.00101207	0.0375697
21889	-0.000859479	0.0359381
22081	-0.000802256	0.0357717
22273	-0.000878553	0.0355168
22465	-0.000878553	0.0337254
22657	-0.00103115	0.034117
22849	-0.000897627	0.0340282
23041	-0.000935775	0.03226
23233	-0.000992997	0.0321223
23425	-0.000878553	0.032003
23617	-0.000954849	0.0305078
23809	-0.00101207	0.0304223
24001	-0.000802256	0.0302884
24193	-0.000859479	0.0290387
24385	-0.000954849	0.0291847
24577	-0.000992997	0.0289759
24769	-0.00101207	0.0278793
24961	-0.000802256	0.0277134
25153	-0.000916701	0.0274986
25345	-2.00093	-13.8907
25537	-2.00078	-5.94744
25729	-2.00089	-3.83949
25921	-2.00091	-2.92136
26113	-0.000859479	8.11812
26305	-0.000878553	0.822674
26497	-0.000916701	0.567128
26689	-0.000897627	0.446978
26881	-0.00082133	0.386384
27073	-0.000897627	0.350969
27265	-0.000954849	0.326245
27457	-0.000878553	0.311857
27649	-0.000973923	0.299038
27841	-0.000935775	0.283759
28033	-0.000859479	0.275089
28225	-0.000916701	0.267865
28417	-0.000935775	0.255564
28609	-0.000840404	0.248974
28801	1.49934	216.06
28993	1.49945	6.82158
29185	1.49947	5.64455
29377	1.49968	5.23639
29569	1.49936	5.05718
29761	1.49947	4.79971
29953	1.49966	4.52183
30145	1.49962	4.32002
30337	1.49951	4.01558
30529	1.49951	3.67016
30721	-0.000935775	0.0325734
30913	-0.000878553	0.0744853
31105	-0.000878553	0.0727911
31297	-0.000935775	0.0683882
31489	-0.000992997	0.0651423
31681	-0.000954849	0.0619279
31873	-0.000840404	0.0574898
32065	-0.000973923	0.0550439
32257	-0.00106929	0.0531505
32449	-0.000840404	0.050638
32641	-0.00101207	0.0488028
32833	-0.00101207	0.047468
33025	-0.000992997	0.0457075
33217	-0.000973923	0.0439416
33409	-0.000783182	0.0430039
33601	-0.000916701	0.0421963
33793	-0.000897627	0.0404446
33985	-0.000992997	0.0399762
34177	-0.000992997	0.0395656
34369	-0.000859479	0.0377195
34561	-0.000897627	0.0373178
34753	-0.000916701	0.0371084
34945	-0.000840404	0.0353508
35137	-0.000897627	0.0362297
35329	-0.000878553	0.0359811
35521	-0.00105022	0.034375
35713	-0.000935775	0.0339365
35905	-0.000954849	0.0336059
36097	-0.000840404	0.0322946
36289	-0.000840404	0.0316924
36481	-0.000935775	0.0315446
36673	-0.000859479	0.0304093
36865	-0.000859479	0.0301905
37057	-0.000840404	0.0300162
37249	-0.000935775	0.0292592
37441	-0.000954849	0.0287902
37633	-0.000935775	0.0284914
37825	-0.000878553	0.0276282
38017	-0.000992997	0.0271907
38209	-0.000859479	0.0269062
38401	-0.000859479	0.0265283
38593	-0.000916701	0.0258056
38785	-0.000916701	0.0256245
38977	-0.000878553	0.0250923
39169	-0.000935775	0.0244653
39361	-0.000859479	0.0240372
39553	-0.000973923	0.0241343
39745	-2.00087	-10.4067
39937	-2.00084	-4.68974
40129	-2.00087	-3.09502
40321	-2.00087	-2.40875
40513	-0.000897627	8.14219
40705	-0.000916701	0.711985
40897	-0.000878553	0.47623
41089	-0.000916701	0.375556
41281	-0.00112652	0.31561
41473	-0.000783182	0.268422
41665	-0.000992997	0.242045
41857	-0.000897627	0.226238
42049	-0.000916701	0.210181
42241	-0.000859479	0.20237
42433	-0.00101207	0.196999
42625	-0.000764108	0.187765
42817	-0.000916701	0.18274
43009	-0.000935775	0.178265
43201	1.4996	171.603
43393	1.4997	6.13802
43585	1.49964	4.88312
43777	1.49943	4.32355
43969	1.49966	3.86446
44161	1.49945	3.44401
44353	1.49959	3.09681
44545	1.49945	2.73847
44737	1.49951	2.37891
44929	1.49941	2.0991
45121	-0.000916701	-0.0479208
45313	-0.00105022	0.0147752
45505	-0.000916701	0.027671
45697	-0.000840404	0.0321525
45889	-0.000954849	0.0344134
46081	-0.00106929	0.0355629
46273	-0.000802256	0.0347056
46465	-0.00082133	0.0348513
46657	-0.000840404	0.035099
46849	-0.00072596	0.0336332
47041	-0.000973923	0.0334222
47233	-0.000954849	0.0334096
47425	-0.000897627	0.0319855
47617	-0.00082133	0.0317768
47809	-0.00105022	0.0315322
48001	-0.000916701	0.0302743
48193	-0.000802256	0.0301093
48385	-0.000878553	0.0298215
48577	-0.000935775	0.0287507
48769	-0.000935775	0.0284788
48961	-0.000764108	0.0283444
49153	-0.00082133	0.0274871
49345	-0.000954849	0.0272535
49537	-0.000878553	0.0268847
49729	-0.000954849	0.0263524
49921	-0.000992997	0.0260084
50113	-0.000897627	0.025619
50305	-0.000859479	0.0252413
50497	-0.000859479	0.0247824
50689	-0.000935775	0.0245463
50881	-0.000992997	0.0244776
51073	-0.000935775	0.0238568
51265	-0.00082133	0.0235937
51457	-0.000840404	0.0235362
51649	-0.00101207	0.0227836
51841	-0.00101207	0.0226489
52033	-0.000954849	0.0227854
52225	-0.00110744	0.0219419
52417	-0.00101207	0.0217746
52609	-0.000897627	0.0219346
52801	-0.000954849	0.0209774
52993	-0.000878553	0.0209148
53185	-0.00101207	0.0210571
53377	-0.000897627	0.020213
53569	-0.000859479	0.0201931
53761	-0.00082133	0.0203039
53953	-0.000878553	0.0196651
54145	-2.00103	-8.0373
54337	-2.00082	-3.79215
54529	-2.00084	-2.62308
54721	-2.00097	-2.0973
54913	-0.000973923	8.27447
55105	-0.000916701	0.63175
55297	-0.00101207	0.424437
55489	-0.000916701	0.334454
55681	-0.000859479	0.274936
55873	-0.00105022	0.236949
56065	-0.000954849	0.210712
56257	-0.000878553	0.189871
56449	-0.000992997	0.174956
56641	-0.00103115	0.164663
56833	-0.000916701	0.156189
57025	-0.000973923	0.14935
57217	-0.000840404	0.144136
57409	-0.000935775	0.138828
57600	-0.000973923	0.132987

File: CA_273_020_minutes_C01.txt
time/s	Ewe/V	<I>/mA
1	1.49951	56.9209
47	1.49947	9.43817
93	1.49949	7.51843
139	1.49943	6.21469
185	1.49961	5.42348
231	1.49959	4.78267
277	1.49945	4.43869
323	1.49955	4.15111
369	1.49947	3.80819
415	1.49959	3.61648
461	1.49951	3.45853
507	1.49955	3.1567
553	1.49945	3.07649
599	1.49959	2.98834
645	1.49959	2.72602
691	1.49949	2.70285
737	1.49945	2.73007
783	1.49974	2.54021
829	1.49951	2.58273
875	1.4997	2.62636
921	1.49955	2.47634
967	1.49955	2.50983
1013	1.49957	2.52796
1059	1.49947	2.40263
1105	1.49959	2.43094
1151	1.4994	2.44017
1197	1.4994	2.34834
1242.95	-0.000877742	-0.327575
1288.95	-0.000934964	-0.118034
1334.95	-0.000896816	-0.0664833
1380.95	-0.000934964	-0.0442345
1426.95	-0.000973113	-0.0314781
1472.95	-0.000858668	-0.0235264
1518.95	-0.00091589	-0.0180071
1564.95	-0.000839594	-0.0139034
1610.95	-0.000839594	-0.0108301
1656.95	-0.000934964	-0.00848903
1702.95	-0.00082052	-0.00660679
1748.95	-0.000801446	-0.00508336
1794.95	-0.000782372	-0.00375079
1840.95	-0.000839594	-0.00273069
1886.95	-0.000896816	-0.00178126
1932.95	-0.00103033	-0.000817819
1978.95	-0.00082052	-0.000231604
2024.95	-0.000839594	0.000329723
2070.95	-0.000801446	0.00109744
2116.95	-0.000992187	0.0013177
2162.95	-0.000706075	0.00179867
2208.95	-0.000858668	0.00242334
2254.95	-0.000858668	0.00269374
2300.95	-0.000896816	0.00279954
2346.95	-0.00101126	0.00325966
2392.95	-0.000934964	0.00359311
2438.95	-0.000858668	0.00391545
2484.95	-0.000877742	0.00405656
2530.95	-0.00091589	0.0042187
2576.95	-0.000877742	0.00434643
2622.95	-0.000782372	0.00455875
2668.95	-0.000801446	0.00476595
2714.95	-0.000725149	0.00492904
2760.95	-0.000801446	0.00502939
2806.95	-0.000839594	0.00517227
2852.95	-0.000973113	0.00540647
2898.95	-0.000839594	0.00529264
2944.95	-0.000839594	0.00544977
2990.95	-0.000954038	0.00574626
3036.95	-0.00104941	0.00552544
3082.95	-0.000667927	0.00561235
3128.95	-0.00091589	0.00592586
3174.95	-0.00082052	0.00579979
3220.95	-0.000725149	0.00582291
3266.95	-0.000877742	0.0060336
3312.95	-0.000934964	0.00599537
3358.95	-0.000858668	0.00600003
3404.95	-0.000992187	0.00612335
3450.95	-0.000934964	0.00606701
3496.95	-0.00091589	0.00617125
3542.95	-0.000858668	0.0062159
3588.95	-0.000934964	0.00622128
3634.95	-0.000934964	0.00627828
3680.95	-0.00082052	0.00625614
3726.95	-0.000934964	0.00631229
3772.95	-0.000744223	0.00646923
3818.95	-0.000801446	0.00629565
3864.95	-0.000858668	0.00637458
3910.95	-0.000877742	0.00649986
3956.95	-0.000992187	0.00641525
4002.95	-0.000687001	0.00637536
4048.95	-0.000858668	0.00652096
4094.95	-0.000877742	0.00644753
4140.95	-0.000763297	0.00645605
4186.95	-0.000877742	0.00653063
4232.95	-0.00104941	0.00644324
4278.95	-0.000954038	0.00642351
4324.95	-0.000706075	0.00652983
4370.95	-0.00082052	0.00656552
4416.95	-0.00091589	0.00647634
4462.95	-0.000973113	0.00643355
4508.95	-0.000858668	0.00652129
4554.95	-0.000954038	0.00653228
4600.95	-0.000896816	0.00652357
4646.95	-0.000954038	0.00653317
4692.95	-0.000744223	0.0066152
4738.95	-0.000782372	0.00650596
4784.95	-0.000954038	0.00650799
4830.95	-0.000896816	0.0066787
4876.95	-0.000877742	0.00650833
4922.95	-0.00091589	0.00659946
4968.95	-0.00082052	0.00671971
5014.95	-0.00091589	0.00650065
5060.95	-0.000877742	0.00664405
5106.95	-0.000801446	0.00665232
5152.95	-0.000896816	0.00656259
5198.95	-0.000934964	0.00658341
5244.95	-0.000954038	0.00657859
5290.95	-0.00091589	0.00656066
5336.95	-0.000896816	0.00662086
5382.95	-0.000954038	0.00657801
5428.95	-0.000839594	0.00656354
5474.95	-0.000934964	0.00669141
5520.95	-0.000801446	0.00657012
5566.95	-0.000992187	0.0066324
5612.95	-0.000839594	0.0067063
5658.95	-0.00082052	0.00657346
5704.95	-0.000839594	0.00655319
5750.95	-0.000763297	0.00683933
5796.95	-0.000954038	0.00660651
5842.95	-0.000954038	0.00654111
5888.95	-0.00091589	0.00676406
5934.95	-0.000973113	0.0066482
5980.95	-0.000992187	0.00659521
6026.95	-0.00091589	0.0067485
6072.95	-0.00082052	0.00661821
6118.95	-0.000839594	0.00665871
6164.95	-0.000896816	0.00667974
6210.95	-0.000839594	0.0066213
6256.95	-0.000934964	0.00663313
6302.95	-0.00082052	0.00661171
6348.95	-0.000801446	0.00660415
6394.95	-0.000896816	0.00670879
6440.95	-0.000973113	0.00668096
6486.95	-0.000858668	0.00658312
6532.95	-0.000801446	0.00673747
6578.95	-0.000858668	0.00666858
6624.95	-0.000858668	0.00659629
6670.95	-0.000934964	0.0066987
6716.95	-0.000782372	0.00658706
6762.95	-0.000934964	0.00659152
6808.95	-0.000706075	0.00667609
6854.95	-0.000896816	0.00654319
6900.95	-0.000801446	0.00652325
6946.95	-0.000858668	0.00661754
6992.95	-0.000954038	0.00651589
7038.95	-0.00091589	0.00663049
7084.95	-0.000934964	0.00658614
7130.95	-0.000858668	0.00656437
7176.95	-0.00082052	0.00653293
7222.95	-0.000934964	0.00645405
7268.95	-0.000839594	0.00658728
7314.95	-0.00091589	0.00653135
7360.95	-0.000877742	0.00642778
7406.95	-0.000763297	0.00645265
7452.95	-0.00091589	0.00655155
7498.95	-0.000896816	0.00640439
7544.95	-0.000973113	0.00639395
7590.95	-0.00091589	0.00657982
7636.95	-0.000782372	0.0064046
7682.95	-0.000992187	0.00643242
7728.95	-0.00082052	0.00654574
7774.95	-0.000687001	0.00645131
7820.95	-0.000934964	0.0063482
7866.95	-0.000858668	0.00649357
7912.95	-0.000896816	0.00633783
7958.95	-0.000973113	0.00636368
8004.95	-0.00091589	0.00636315
8050.95	-0.000992187	0.00634949
8096.95	-0.000954038	0.00636762
8142.95	-0.000973113	0.00631859
8188.95	-0.000896816	0.00629293
8234.95	-0.000896816	0.00635837
8280.95	-0.000954038	0.00625556
8326.95	-0.000934964	0.00629393
8372.95	-0.000839594	0.00633215
8418.95	-0.000877742	0.00626887
8464.95	-0.000954038	0.00622272
8510.95	-0.000934964	0.00643204
8556.95	-0.000877742	0.00625573
8602.95	-0.000782372	0.00624488
8648.95	-0.000801446	0.00636729
8694.95	-0.000706075	0.00624457
8740.95	-0.000992187	0.00622318
8786.95	-0.000782372	0.00626569
8832.95	-0.000744223	0.00622732
8878.95	-0.000992187	0.00620729
8924.95	-0.00101126	0.00629481
8970.95	-0.00103033	0.00623587
9016.95	-0.000934964	0.00622776
9062.95	-0.00082052	0.00622659
9108.95	-0.000954038	0.00622187
9154.95	-0.00082052	0.00619736
9200.95	-0.000858668	0.00612152
9246.95	-0.000839594	0.00615615
9292.95	-0.000801446	0.00620037
9338.95	-0.000744223	0.00611277
9384.95	-0.000858668	0.00612549
9430.95	-0.000801446	0.00620755
9476.95	-0.000954038	0.00604239
9522.95	-0.000782372	0.00610759
9568.95	-0.000973113	0.0062347
9614.95	-0.000934964	0.00609708
9660.95	-0.00091589	0.00605542
9706.95	-0.000973113	0.00621187
9752.95	-0.00103033	0.00609764
9798.95	-0.00082052	0.00610973
9844.95	-0.000839594	0.00606332
9890.95	-0.00091589	0.00607413
9936.95	-0.00082052	0.00607507
9982.95	-0.000934964	0.00608156
10029	-0.000973113	0.00601061
10075	-0.00091589	0.00608343
10121	-0.000858668	0.0060182
10167	-0.00082052	0.00602011
10213	-2.00063	-38.0293
10259	-2.00089	-11.6144
10305	-2.00089	-7.31384
10351	-2.00082	-5.61306
10397	-2.00084	-4.72991
10443	-2.00087	-4.20958
10489	-2.0008	-3.8155
10535	-2.00087	-3.53803
10581	-2.00076	-3.32809
10627	-2.00072	-3.15918
10673	-2.00074	-3.04572
10719	-2.00082	-2.90801
10765	-2.00082	-2.82786
10811	-2.00084	-2.76887
10857	-2.00072	-2.68833
10903	-2.00091	-2.64442
10949	-2.00078	-2.61456
10995	-2.00087	-2.55228
11041	-2.00091	-2.50876
11087	-2.00082	-2.4872
11133	-0.000992187	2.11803
11179	-0.000934964	0.791177
11225	-0.000839594	0.50342
11271	-0.00082052	0.377817
11317	-0.000801446	0.309152
11363	-0.000934964	0.26578
11409	-0.000896816	0.236928
11455	-0.000954038	0.214542
11501	-0.00101126	0.197829
11547	-0.000839594	0.184926
11593	-0.000954038	0.173143
11639	-0.000744223	0.163636
11685	-0.000973113	0.156068
11731	-0.000839594	0.148553
11777	-0.00091589	0.142339
11823	-0.00091589	0.136924
11869	-0.000896816	0.131658
11915	-0.000858668	0.127002
11961	-0.000877742	0.122797
12007	-0.000934964	0.118994
12053	-0.00103033	0.115511
12099	-0.00091589	0.112072
12145	-0.000858668	0.10896
12191	-0.000973113	0.106272
12237	-0.00091589	0.103177
12283	-0.000801446	0.10063
12329	-0.00091589	0.0987754
12375	-0.000801446	0.09618
12421	-0.000954038	0.094117
12467	-0.000877742	0.0924205
12513	-0.000839594	0.0902992
12559	-0.000801446	0.0884902
12605	-0.00091589	0.0870251
12651	-0.000877742	0.0852794
12697	-0.000839594	0.0837981
12743	-0.000934964	0.0824719
12789	-0.000992187	0.0809007
12835	-0.000839594	0.079696
12881	-0.000839594	0.0784693
12927	-0.00082052	0.0771515
12973	-0.000896816	0.0762282
13019	-0.00103033	0.0750311
13065	-0.000839594	0.0740706
13111	-0.000954038	0.073272
13157	-0.00091589	0.0721018
13203	-0.000839594	0.0712097
13249	-0.000858668	0.0706467
13295	-0.000839594	0.0695285
13341	-0.000877742	0.0686428
13387	-0.000801446	0.0684811
13433	-0.000801446	0.0673314
13479	-0.000763297	0.0665798
13525	-0.000858668	0.0660467
13571	-0.000687001	0.0651853
13617	-0.00082052	0.0645233
13663	-0.00091589	0.0640116
13709	-0.00091589	0.0633752
13755	-0.000839594	0.0626941
13800	-0.000934964	0.0623227