Folder: Nickel_Dithiolene_Research_Experimental_Data/Data_22_Experiment

Note: README.md
# Nickel_Dithiolene_Research_Experimental_Data
Init_Data
This is a data repository that support the findings in the manuscript "Electrochemically Modulated Separation of Olefin-Paraffin Gas Mixtures in Membrane Electrode Assemblies". All uploaded codes use Matlab software version 2022A or above. All codes can be run on operating system windows 10 or above on any PC with sufficient memory to run Matlab. Refer to the System Requirements Page for Matlab at https://www.mathworks.com/support/requirements/matlab-system-requirements.html for further information.

On matlab, run the script "Graph_Results_Summary_v01" to plot all relevant graphs that are shown in the main manuscript. Further details including Gas Chromatographs of all experimental recordings can be found in individual numbered data folder. To find the appropriate data folder, refer to the excel spreadsheet "Result_Summary" which contains tables of summary data. Each column is labeled by the data folder number to which it pertains to.

In each data folder, it contains all appropriate raw chromatograph data from the MIcro GC 990 as ASCII file in "Compiled_Data" folder. Matlab codes used to analyze the gas chromatographs and chronoamperometry data are also included in each numbered data folder. To output and analyze the raw chromatograph data, run the script "Micro_GC_990_Data_Spreadsheet_Summary_v01". Be sure to edit the path_address within the Matlab script to direct the code to analyze the raw files from the appropriate address in your computer (e.g. C:\Users\Default\Documents\Compiled_Data\). To output the graphs shown in the Supplementary Information, run the script MEA_Experimental_Result_v01. Raw Chronoamperometry data (as text file) from the Potentiostat is included in each numbered data folder.

File: CA_001_C01.txt
time/s	Ewe/V	<I>/mA
1	0.499197	28.0462
193	0.499349	0.842579
385	0.499311	0.641774
577	0.499292	0.553087
769	0.499121	0.49559
961	0.499063	0.450888
1153	0.499235	0.417153
1345	0.499159	0.389573
1537	0.499216	0.365867
1729	0.499273	0.345868
1920.95	-0.00092619	0.0318344
2112.95	-0.000983412	0.0555006
2304.95	-0.00102156	0.0538851
2496.95	-0.000964338	0.0507969
2688.95	-0.00105971	0.0476124
2880.95	-0.00102156	0.0425034
3072.95	-0.000868968	0.0396965
3264.95	-0.000983412	0.0375107
3456.95	-0.000888042	0.0359152
3648.95	-0.000907116	0.0346098
3840.95	-0.00119323	0.0333402
4032.95	-0.00105971	0.0322703
4224.95	-0.000945264	0.0313087
4416.95	-0.000868968	0.0303974
4608.95	-0.000907116	0.0295891
4800.95	-0.00100249	0.0288468
4992.95	-0.00109786	0.0280505
5184.95	-0.00109786	0.0273353
5376.95	-0.00117415	0.0266694
5568.95	-0.00100249	0.026055
5760.95	-0.00102156	0.0254911
5952.95	-0.000888042	0.0249752
6144.95	-0.000945264	0.024505
6336.95	-0.00102156	0.0239474
6528.95	-0.00109786	0.0234392
6720.95	-0.00102156	0.0229769
6912.95	-0.000983412	0.022576
7104.95	-0.000964338	0.0221357
7296.95	-0.00100249	0.021739
7488.95	-0.000888042	0.0213685
7680.95	-0.00115508	0.0209863
7872.95	-0.00100249	0.0206054
8064.95	-0.000964338	0.0202325
8256.95	-0.000945264	0.0199297
8448.95	-0.00111693	0.0196317
8640.95	-0.000907116	0.0192983
8832.95	-0.00105971	0.0190425
9024.95	-0.000983412	0.0187578
9216.95	-0.000888042	0.0184468
9408.95	-0.00115508	0.0182759
9600.95	-0.00109786	0.0180261
9792.95	-0.000945264	0.017755
9984.95	-0.000964338	0.0175648
10177	-0.00113601	0.0173917
10369	-0.00111693	0.0171374
10561	-0.00117415	0.0169527
10753	-0.00104063	0.0167312
10945	-2.00079	-9.70593
11137	-2.00083	-8.97506
11329	-2.00071	-8.79405
11521	-2.00092	-8.74896
11713	-0.000983412	14.2499
11905	-0.000964338	0.796384
12097	-0.000983412	0.53328
12289	-0.00109786	0.437608
12481	-0.00104063	0.382291
12673	-0.00105971	0.343434
12865	-0.00107878	0.312518
13057	-0.00113601	0.287611
13249	-0.00109786	0.266805
13441	-0.0012123	0.248426
13633	-0.000964338	0.232712
13825	-0.00107878	0.218882
14017	-0.00092619	0.206242
14209	-0.00100249	0.195119
14401	0.499178	20.474
14593	0.49914	0.957326
14785	0.499368	0.734144
14977	0.49914	0.616395
15169	0.499197	0.536666
15361	0.499311	0.476788
15553	0.499388	0.432959
15745	0.499216	0.398358
15937	0.499178	0.370741
16129	0.499101	0.34838
16321	-0.00109786	0.0287501
16513	-0.000888042	0.051484
16705	-0.00102156	0.0506486
16897	-0.00102156	0.0482203
17089	-0.00107878	0.0459308
17281	-0.00100249	0.0439861
17473	-0.0012886	0.042105
17665	-0.00115508	0.0404058
17857	-0.000945264	0.0390869
18049	-0.000964338	0.037692
18241	-0.00115508	0.0364454
18433	-0.00102156	0.0353764
18625	-0.00083082	0.0342943
18817	-0.000983412	0.03335
19009	-0.00109786	0.033121
19201	-0.00104063	0.0323469
19393	-0.00113601	0.0315586
19585	-0.00102156	0.0308262
19777	-0.000888042	0.0301654
19969	-0.0012123	0.0294578
20161	-0.00111693	0.0287317
20353	-0.000983412	0.0282301
20545	-0.000964338	0.0276624
20737	-0.00113601	0.0271682
20929	-0.00092619	0.0266509
21121	-0.00102156	0.0260648
21313	-0.00105971	0.0255645
21505	-0.00111693	0.0251295
21697	-0.000983412	0.0246251
21889	-0.00100249	0.0242786
22081	-0.000945264	0.0238598
22273	-0.00105971	0.0234154
22465	-0.00109786	0.0230683
22657	-0.00109786	0.0227651
22849	-0.00111693	0.0224057
23041	-0.00102156	0.0219837
23233	-0.00113601	0.0218084
23425	-0.00109786	0.0214416
23617	-0.00109786	0.0211416
23809	-0.00111693	0.0210165
24001	-0.00105971	0.0206551
24193	-0.00100249	0.0203756
24385	-0.00100249	0.020117
24577	-0.00113601	0.0198217
24769	-0.00104063	0.0196217
24961	-0.00115508	0.0194002
25153	-0.000983412	0.0191404
25345	-2.00073	-8.68497
25537	-2.00088	-8.20543
25729	-2.0009	-8.18197
25921	-2.00085	-8.2578
26113	-0.00092619	14.2708
26305	-0.000907116	0.752609
26497	-0.00125045	0.477321
26689	-0.000964338	0.384473
26881	-0.00102156	0.332362
27073	-0.00100249	0.294695
27265	-0.000964338	0.266978
27457	-0.00102156	0.245247
27649	-0.00115508	0.226778
27841	-0.000945264	0.211307
28033	-0.00125045	0.198812
28225	-0.00109786	0.186935
28417	-0.000983412	0.17696
28609	-0.00107878	0.168018
28801	0.499063	20.8617
28993	0.499101	0.945102
29185	0.499197	0.697644
29377	0.49914	0.572349
29569	0.499216	0.490832
29761	0.499159	0.432402
29953	0.499216	0.390402
30145	0.49933	0.358039
30337	0.499121	0.332857
30529	0.499235	0.311917
30721	-0.00125045	0.0166992
30913	-0.00111693	0.0438928
31105	-0.00105971	0.0443457
31297	-0.000907116	0.0427038
31489	-0.00105971	0.0408287
31681	-0.00109786	0.0392237
31873	-0.00100249	0.0377073
32065	-0.00115508	0.0363213
32257	-0.000907116	0.0350347
32449	-0.00115508	0.0338111
32641	-0.0012123	0.0328383
32833	-0.000983412	0.0318741
33025	-0.00107878	0.0310542
33217	-0.0012123	0.0301615
33409	-0.00119323	0.0294688
33601	-0.00105971	0.0287145
33793	-0.00102156	0.0279857
33985	-0.00117415	0.0274071
34177	-0.00109786	0.0267939
34369	-0.00111693	0.0262343
34561	-0.00107878	0.0257412
34753	-0.00111693	0.0252058
34945	-0.00117415	0.024704
35137	-0.00115508	0.0242609
35329	-0.00104063	0.0237684
35521	-0.00109786	0.0233574
35713	-0.00105971	0.0230053
35905	-0.00105971	0.0225556
36097	-0.00104063	0.0222313
36289	-0.00105971	0.0219521
36481	-0.000983412	0.0215833
36673	-0.00132675	0.0212867
36865	-0.00111693	0.021002
37057	-0.00107878	0.0206398
37249	-0.000792671	0.0204397
37441	-0.00117415	0.0201446
37633	-0.000868968	0.0199249
37825	-0.00107878	0.0196338
38017	-0.00119323	0.0193863
38209	-0.00109786	0.0191679
38401	-0.00113601	0.0189021
38593	-0.00105971	0.0187102
38785	-0.000983412	0.0184807
38977	-0.00100249	0.0182621
39169	-0.000983412	0.0180653
39361	-0.00109786	0.0178534
39553	-0.00105971	0.0177064
39745	-2.00083	-7.87907
39937	-2.00086	-7.51475
40129	-2.00077	-7.58611
40321	-2.00077	-7.725
40513	-0.00109786	14.3152
40705	-0.00119323	0.705637
40897	-0.000868968	0.430635
41089	-0.000945264	0.340545
41281	-0.00107878	0.289615
41473	-0.00126952	0.255546
41665	-0.00104063	0.230489
41857	-0.000964338	0.210465
42049	-0.00102156	0.194835
42241	-0.000964338	0.182085
42433	-0.000945264	0.171076
42625	-0.00102156	0.161321
42817	-0.00102156	0.152862
43009	-0.000983412	0.145434
43201	0.499254	20.9385
43393	0.499197	0.886661
43585	0.499178	0.634079
43777	0.499101	0.511568
43969	0.499216	0.435221
44161	0.499235	0.384386
44353	0.499235	0.346843
44545	0.49914	0.318373
44737	0.499235	0.296018
44929	0.499101	0.277343
45121	-0.00113601	0.0063692
45313	-0.000888042	0.0370159
45505	-0.000983412	0.0385175
45697	-0.00102156	0.0373536
45889	-0.000983412	0.0360647
46081	-0.00117415	0.0345338
46273	-0.00111693	0.0332626
46465	-0.000945264	0.0321552
46657	-0.00092619	0.0310155
46849	-0.000945264	0.0300133
47041	-0.00111693	0.0291498
47233	-0.000983412	0.0283312
47425	-0.00109786	0.0275286
47617	-0.00092619	0.0268727
47809	-0.00105971	0.0261142
48001	-0.000945264	0.0255419
48193	-0.00111693	0.025009
48385	-0.00105971	0.0244299
48577	-0.00104063	0.0239028
48769	-0.00109786	0.0234561
48961	-0.00105971	0.0229525
49153	-0.00104063	0.0225637
49345	-0.00117415	0.0221284
49537	-0.00111693	0.0217402
49729	-0.000868968	0.0213328
49921	-0.00107878	0.0209645
50113	-0.00104063	0.0206263
50305	-0.00109786	0.020274
50497	-0.000964338	0.0199649
50689	-0.00113601	0.0197043
50881	-0.00092619	0.0194274
51073	-0.00102156	0.0191305
51265	-0.00109786	0.0188911
51457	-0.000849894	0.0186181
51649	-0.00113601	0.0183748
51841	-0.00102156	0.0181277
52033	-0.000983412	0.0178993
52225	-0.00115508	0.0176359
52417	-0.00107878	0.0174443
52609	-0.000983412	0.0172578
52801	-0.000964338	0.0170815
52993	-0.00092619	0.0169051
53185	-0.00104063	0.0167142
53377	-0.0012886	0.0165301
53569	-0.00109786	0.0164205
53761	-0.000945264	0.0162459
53953	-0.00111693	0.0160681
54145	-2.00102	-7.373
54337	-2.0009	-7.07341
54529	-2.0009	-7.24503
54721	-2.00094	-7.43725
54913	-0.000888042	14.1411
55105	-0.00113601	0.677592
55297	-0.00104063	0.397366
55489	-0.000983412	0.307216
55681	-0.000888042	0.257713
55873	-0.00113601	0.225638
56065	-0.000945264	0.202323
56257	-0.000964338	0.184187
56449	-0.000888042	0.170185
56641	-0.00111693	0.159078
56833	-0.000888042	0.149331
57025	-0.00109786	0.141035
57217	-0.00105971	0.134024
57409	-0.00115508	0.127369
57600	-0.00100249	0.120323