Folder: Nickel_Dithiolene_Research_Experimental_Data/Data_09_Experiment

Note: README.md
# Nickel_Dithiolene_Research_Experimental_Data
Init_Data
This is a data repository that support the findings in the manuscript "Electrochemically Modulated Separation of Olefin-Paraffin Gas Mixtures in Membrane Electrode Assemblies". All uploaded codes use Matlab software version 2022A or above. All codes can be run on operating system windows 10 or above on any PC with sufficient memory to run Matlab. Refer to the System Requirements Page for Matlab at https://www.mathworks.com/support/requirements/matlab-system-requirements.html for further information.

On matlab, run the script "Graph_Results_Summary_v01" to plot all relevant graphs that are shown in the main manuscript. Further details including Gas Chromatographs of all experimental recordings can be found in individual numbered data folder. To find the appropriate data folder, refer to the excel spreadsheet "Result_Summary" which contains tables of summary data. Each column is labeled by the data folder number to which it pertains to.

In each data folder, it contains all appropriate raw chromatograph data from the MIcro GC 990 as ASCII file in "Compiled_Data" folder. Matlab codes used to analyze the gas chromatographs and chronoamperometry data are also included in each numbered data folder. To output and analyze the raw chromatograph data, run the script "Micro_GC_990_Data_Spreadsheet_Summary_v01". Be sure to edit the path_address within the Matlab script to direct the code to analyze the raw files from the appropriate address in your computer (e.g. C:\Users\Default\Documents\Compiled_Data\). To output the graphs shown in the Supplementary Information, run the script MEA_Experimental_Result_v01. Raw Chronoamperometry data (as text file) from the Potentiostat is included in each numbered data folder.

File: CA_001_C01.txt
time/s	Ewe/V	<I>/mA
1	1.49927	197.781
193	1.49912	8.26759
385	1.49937	9.24501
577	1.49923	9.55073
769	1.49919	9.22332
961	1.49937	8.53537
1153	1.49937	7.7871
1345	1.49929	7.12807
1537	1.49937	6.55882
1729	1.49935	6.05898
1920.95	-0.00100249	0.429913
2112.95	-0.00111693	0.16171
2304.95	-0.000945264	0.101055
2496.95	-0.00113601	0.0696181
2688.95	-0.00109786	0.0613258
2880.95	-0.00115508	0.0576239
3072.95	-0.000945264	0.0456912
3264.95	-0.00104063	0.0466503
3456.95	-0.00111693	0.0418898
3648.95	-0.00115508	0.0356727
3840.95	-0.00100249	0.0398925
4032.95	-0.000964338	0.0378781
4224.95	-0.000983412	0.0348549
4416.95	-0.00105971	0.0317113
4608.95	-0.00117415	0.0335145
4800.95	-0.00107878	0.033376
4992.95	-0.00102156	0.0326177
5184.95	-0.00111693	0.0333008
5376.95	-0.000907116	0.0295854
5568.95	-0.000945264	0.0290661
5760.95	-0.000945264	0.0313496
5952.95	-0.00100249	0.0307517
6144.95	-0.00102156	0.0292096
6336.95	-0.00104063	0.0301953
6528.95	-0.000964338	0.0285078
6720.95	-0.00107878	0.0293231
6912.95	-0.00105971	0.0289557
7104.95	-0.00092619	0.028246
7296.95	-0.000907116	0.0289064
7488.95	-0.00105971	0.0284388
7680.95	-0.00092619	0.0295862
7872.95	-0.00104063	0.027877
8064.95	-0.000983412	0.0280827
8256.95	-0.00115508	0.0280644
8448.95	-0.00102156	0.0272704
8640.95	-0.00113601	0.0282913
8832.95	-0.00111693	0.0286733
9024.95	-0.000945264	0.0269686
9216.95	-0.000983412	0.0271687
9408.95	-0.000983412	0.0280505
9600.95	-0.00104063	0.0266014
9792.95	-0.00107878	0.0269007
9984.95	-0.00104063	0.0265852
10177	-0.00117415	0.026274
10369	-0.00104063	0.0263393
10561	-0.00107878	0.0267159
10753	-0.00105971	0.0259088
10945	-2.00092	-16.5513
11137	-2.00085	-7.88305
11329	-2.00086	-5.76532
11521	-2.00079	-4.88384
11713	-0.000964338	7.83802
11905	-0.00109786	1.28111
12097	-0.00105971	1.05306
12289	-0.00102156	0.913015
12481	-0.00102156	0.815755
12673	-0.00111693	0.736035
12865	-0.000964338	0.674692
13057	-0.00102156	0.623271
13249	-0.00100249	0.572575
13441	-0.000983412	0.530322
13633	-0.00125045	0.495794
13825	-0.00113601	0.455858
14017	-0.00115508	0.422374
14209	-0.000945264	0.392025
14401	1.49937	214.129
14593	1.49931	11.1846
14785	1.49931	7.84141
14977	1.49923	6.41354
15169	1.49931	5.55862
15361	1.49944	4.99848
15553	1.49921	4.53018
15745	1.49935	4.15724
15937	1.49927	3.84103
16129	1.49927	3.58726
16321	-0.00102156	0.0911522
16513	-0.000945264	0.0815845
16705	-0.00100249	0.0675649
16897	-0.000907116	0.060681
17089	-0.00105971	0.0604799
17281	-0.000964338	0.0539842
17473	-0.000964338	0.054076
17665	-0.000868968	0.0515024
17857	-0.000964338	0.0498986
18049	-0.00105971	0.0486981
18241	-0.000868968	0.0493034
18433	-0.00102156	0.0459142
18625	-0.00100249	0.0453224
18817	-0.00105971	0.0439016
19009	-0.00102156	0.0431806
19201	-0.00109786	0.0413434
19393	-0.00102156	0.0413658
19585	-0.000964338	0.0413549
19777	-0.00100249	0.0357344
19969	-0.000907116	0.0362288
20161	-0.00111693	0.0371882
20353	-0.00111693	0.034493
20545	-0.00100249	0.0339009
20737	-0.000907116	0.0351841
20929	-0.00102156	0.0325548
21121	-0.000907116	0.0316378
21313	-0.00111693	0.0326398
21505	-0.00113601	0.0312767
21697	-0.00102156	0.0310379
21889	-0.00113601	0.0311689
22081	-0.00104063	0.0293519
22273	-0.000945264	0.0291614
22465	-0.00105971	0.0289723
22657	-0.00115508	0.0277304
22849	-0.000983412	0.0273128
23041	-0.00104063	0.0275984
23233	-0.00102156	0.0263202
23425	-0.00092619	0.0261719
23617	-0.00115508	0.0262601
23809	-0.00105971	0.0253104
24001	-0.00104063	0.025287
24193	-0.000964338	0.0252776
24385	-0.00100249	0.0241277
24577	-0.00102156	0.0241658
24769	-0.00105971	0.0241701
24961	-0.00111693	0.0241127
25153	-0.000983412	0.0230657
25345	-2.00083	-12.666
25537	-2.00085	-6.35349
25729	-2.00075	-4.61769
25921	-2.00086	-3.84234
26113	-0.00100249	7.19202
26305	-0.00100249	0.804444
26497	-0.00107878	0.595619
26689	-0.00107878	0.509352
26881	-0.00104063	0.446386
27073	-0.00115508	0.410681
27265	-0.00100249	0.388381
27457	-0.00105971	0.361959
27649	-0.00107878	0.342953
27841	-0.000945264	0.329728
28033	-0.00107878	0.311134
28225	-0.00107878	0.298266
28417	-0.00100249	0.288354
28609	-0.00113601	0.275081
28801	1.49923	165.673
28993	1.49937	7.20775
29185	1.49923	5.5669
29377	1.49937	4.94425
29569	1.49933	4.4989
29761	1.49925	4.19306
29953	1.49931	3.89287
30145	1.49929	3.60262
30337	1.49935	3.38322
30529	1.49937	3.14285
30721	-0.00109786	0.0298919
30913	-0.00107878	0.044915
31105	-0.00109786	0.044762
31297	-0.000983412	0.0447696
31489	-0.00104063	0.0453305
31681	-0.000964338	0.0433308
31873	-0.000945264	0.0433537
32065	-0.000888042	0.0437835
32257	-0.00105971	0.0411767
32449	-0.00100249	0.0402148
32641	-0.00102156	0.0403134
32833	-0.00083082	0.038183
33025	-0.000964338	0.0376168
33217	-0.000983412	0.0372334
33409	-0.00105971	0.036002
33601	-0.00100249	0.0347949
33793	-0.00092619	0.0357211
33985	-0.00123138	0.0334194
34177	-0.00100249	0.0331075
34369	-0.000945264	0.0330494
34561	-0.00105971	0.0315585
34753	-0.00092619	0.0313299
34945	-0.00109786	0.0304405
35137	-0.00113601	0.0297329
35329	-0.00104063	0.0294003
35521	-0.000945264	0.0291251
35713	-0.000945264	0.0286458
35905	-0.00105971	0.0278621
36097	-0.00109786	0.0273568
36289	-0.00113601	0.0273501
36481	-0.00102156	0.0265397
36673	-0.00113601	0.0260992
36865	-0.00107878	0.0265918
37057	-0.00109786	0.0252945
37249	-0.000945264	0.0247294
37441	-0.00102156	0.0250448
37633	-0.000907116	0.0241622
37825	-0.000983412	0.0237738
38017	-0.00111693	0.0241269
38209	-0.00109786	0.0230827
38401	-0.00115508	0.0228233
38593	-0.000983412	0.0230474
38785	-0.00105971	0.0221224
38977	-0.00092619	0.0218851
39169	-0.00113601	0.0220643
39361	-0.00107878	0.0211398
39553	-0.00104063	0.0209507
39745	-2.0009	-10.0867
39937	-2.00085	-5.49503
40129	-2.00077	-4.12413
40321	-2.00073	-3.48819
40513	-0.00107878	6.83067
40705	-0.000983412	0.647491
40897	-0.00107878	0.462226
41089	-0.000945264	0.370435
41281	-0.000888042	0.314987
41473	-0.000964338	0.285558
41665	-0.00109786	0.264391
41857	-0.00109786	0.249654
42049	-0.00104063	0.238883
42241	-0.00100249	0.22785
42433	-0.000983412	0.218903
42625	-0.00102156	0.2111
42817	-0.000945264	0.203866
43009	-0.00092619	0.196099
43201	1.49921	149.297
43393	1.49923	6.22716
43585	1.49914	4.70346
43777	1.49925	4.05886
43969	1.49923	3.60959
44161	1.49919	3.20638
44353	1.49935	2.82333
44545	1.49944	2.474
44737	1.49921	2.1892
44929	1.49935	1.97789
45121	-0.00105971	-0.0559451
45313	-0.00119323	0.00240654
45505	-0.00115508	0.0165698
45697	-0.00105971	0.023337
45889	-0.00104063	0.0257136
46081	-0.000945264	0.0273238
46273	-0.00104063	0.0287517
46465	-0.00107878	0.0286961
46657	-0.00104063	0.0290648
46849	-0.00104063	0.0288104
47041	-0.000964338	0.0289756
47233	-0.00105971	0.0282725
47425	-0.00100249	0.0285545
47617	-0.00104063	0.0278593
47809	-0.00115508	0.0271686
48001	-0.000907116	0.0269893
48193	-0.00109786	0.026654
48385	-0.00104063	0.0257899
48577	-0.00105971	0.0259086
48769	-0.00102156	0.0258468
48961	-0.00111693	0.0247243
49153	-0.000964338	0.0243939
49345	-0.000964338	0.0243943
49537	-0.00092619	0.0239553
49729	-0.00115508	0.0233421
49921	-0.00109786	0.0235441
50113	-0.000907116	0.0224986
50305	-0.00109786	0.0223122
50497	-0.00107878	0.02235
50689	-0.00092619	0.0216809
50881	-0.00102156	0.0213582
51073	-0.000964338	0.0215194
51265	-0.00109786	0.0207506
51457	-0.0012123	0.0206419
51649	-0.00100249	0.0205694
51841	-0.00100249	0.0199184
52033	-0.00105971	0.0196663
52225	-0.00107878	0.0196946
52417	-0.00107878	0.0191698
52609	-0.00115508	0.0189228
52801	-0.00102156	0.0187121
52993	-0.00107878	0.0185651
53185	-0.00100249	0.0182607
53377	-0.00107878	0.0180548
53569	-0.00105971	0.0179151
53761	-0.000945264	0.017664
53953	-0.00100249	0.0174436
54145	-2.00083	-8.36593
54337	-2.00086	-4.90192
54529	-2.00086	-3.83587
54721	-2.00088	-3.30983
54913	-0.000945264	6.82693
55105	-0.00092619	0.564294
55297	-0.00102156	0.391847
55489	-0.000964338	0.3094
55681	-0.00117415	0.258128
55873	-0.00100249	0.224822
56065	-0.00111693	0.201816
56257	-0.00102156	0.188018
56449	-0.00102156	0.178981
56641	-0.00102156	0.170274
56833	-0.00105971	0.163501
57025	-0.00113601	0.158244
57217	-0.00102156	0.150819
57409	-0.00105971	0.144799
57600	-0.00102156	0.139402