Folder: Nickel_Dithiolene_Research_Experimental_Data/Data_34_Experiment

Note: README.md
# Nickel_Dithiolene_Research_Experimental_Data
Init_Data
This is a data repository that support the findings in the manuscript "Electrochemically Modulated Separation of Olefin-Paraffin Gas Mixtures in Membrane Electrode Assemblies". All uploaded codes use Matlab software version 2022A or above. All codes can be run on operating system windows 10 or above on any PC with sufficient memory to run Matlab. Refer to the System Requirements Page for Matlab at https://www.mathworks.com/support/requirements/matlab-system-requirements.html for further information.

On matlab, run the script "Graph_Results_Summary_v01" to plot all relevant graphs that are shown in the main manuscript. Further details including Gas Chromatographs of all experimental recordings can be found in individual numbered data folder. To find the appropriate data folder, refer to the excel spreadsheet "Result_Summary" which contains tables of summary data. Each column is labeled by the data folder number to which it pertains to.

In each data folder, it contains all appropriate raw chromatograph data from the MIcro GC 990 as ASCII file in "Compiled_Data" folder. Matlab codes used to analyze the gas chromatographs and chronoamperometry data are also included in each numbered data folder. To output and analyze the raw chromatograph data, run the script "Micro_GC_990_Data_Spreadsheet_Summary_v01". Be sure to edit the path_address within the Matlab script to direct the code to analyze the raw files from the appropriate address in your computer (e.g. C:\Users\Default\Documents\Compiled_Data\). To output the graphs shown in the Supplementary Information, run the script MEA_Experimental_Result_v01. Raw Chronoamperometry data (as text file) from the Potentiostat is included in each numbered data folder.

File: CA_272_060_minutes_C01.txt
time/s	Ewe/V	<I>/mA
1	1.49953	135.412
55	1.49968	18.929
109	1.49945	13.2733
163	1.49953	10.7261
217	1.49949	9.76011
271	1.49941	9.20583
325	1.49968	9.04147
379	1.49961	8.79044
433	1.49961	8.50335
487	1.49961	8.40375
541	1.49943	8.08645
595	1.49951	7.76864
649	1.49951	7.53255
703	1.49966	7.14421
757	1.49972	6.88042
811	1.49947	6.56244
865	1.49949	6.20902
919	1.49966	6.01896
973	1.49941	5.72591
1027	1.49962	5.41891
1081	1.49947	5.26033
1135	1.49947	4.9844
1189	1.49949	4.74866
1243	1.49949	4.55008
1297	1.49949	4.26752
1351	1.49951	4.12573
1405	1.49949	3.87229
1459	1.49943	3.61366
1513	1.49957	3.48866
1567	1.49951	3.30937
1621	1.49949	3.17527
1675	1.49941	2.98803
1729	1.49959	2.78366
1783	1.49959	2.77035
1837	1.49945	2.61362
1891	1.49953	2.46925
1945	1.49953	2.4713
1999	1.49953	2.37026
2053	1.49949	2.34223
2107	1.49962	2.31951
2161	1.49959	2.21009
2215	1.49957	2.27169
2269	1.4994	2.18991
2323	1.49955	2.12311
2377	1.49949	2.1737
2431	1.49957	2.09745
2485	1.49949	2.09746
2539	1.49945	2.08105
2593	1.49964	2.01056
2647	1.49959	2.05659
2701	1.49951	2.03208
2755	1.49945	2.00402
2809	1.49943	2.04113
2863	1.49955	1.9826
2917	1.49961	1.98518
2971	1.49953	1.98975
3025	1.49953	1.95249
3079	1.49964	1.9905
3133	1.49957	1.95132
3187	1.49961	1.9169
3241	1.49949	1.94216
3295	1.49953	1.89668
3349	1.49962	1.88666
3403	1.49962	1.91319
3457	1.49955	1.87967
3511	1.49957	1.90847
3565	1.49957	1.87581
3618.95	-0.000877742	-1.20313
3672.95	-0.000934964	-0.270756
3726.95	-0.000858668	-0.148004
3780.95	-0.000858668	-0.100679
3834.95	-0.000896816	-0.0750628
3888.95	-0.00106848	-0.0600218
3942.95	-0.000877742	-0.0493891
3996.95	-0.000858668	-0.0424768
4050.95	-0.000801446	-0.0368001
4104.95	-0.000839594	-0.0325424
4158.95	-0.000801446	-0.0293619
4212.95	-0.00091589	-0.0267648
4266.95	-0.000992187	-0.0245225
4320.95	-0.00082052	-0.0228134
4374.95	-0.000973113	-0.0211242
4428.95	-0.000954038	-0.0201116
4482.95	-0.000706075	-0.0190402
4536.95	-0.00082052	-0.0179015
4590.95	-0.00103033	-0.0173269
4644.95	-0.000763297	-0.0166189
4698.95	-0.000896816	-0.0159791
4752.95	-0.00091589	-0.015217
4806.95	-0.000877742	-0.0145549
4860.95	-0.000934964	-0.0142701
4914.95	-0.000934964	-0.0138022
4968.95	-0.000839594	-0.0131422
5022.95	-0.000934964	-0.013004
5076.95	-0.00103033	-0.0125289
5130.95	-0.000801446	-0.0120858
5184.95	-0.000934964	-0.0114007
5238.95	-0.00110663	-0.0108045
5292.95	-0.00101126	-0.0108139
5346.95	-0.00112571	-0.0104263
5400.95	-0.00091589	-0.00977867
5454.95	-0.000934964	-0.00974917
5508.95	-0.000992187	-0.00939841
5562.95	-0.000973113	-0.00920905
5616.95	-0.00082052	-0.00893383
5670.95	-0.000934964	-0.00863301
5724.95	-0.000763297	-0.00849737
5778.95	-0.000877742	-0.00822598
5832.95	-0.000839594	-0.00789833
5886.95	-0.00103033	-0.00789258
5940.95	-0.000896816	-0.00761161
5994.95	-0.000801446	-0.00725683
6048.95	-0.000839594	-0.00723475
6102.95	-0.000839594	-0.00698651
6156.95	-0.000610705	-0.00680903
6210.95	-0.000973113	-0.00651037
6264.95	-0.000896816	-0.00596621
6318.95	-0.00103033	-0.00605296
6372.95	-0.00091589	-0.00592451
6426.95	-0.000934964	-0.00563434
6480.95	-0.000858668	-0.00559375
6534.95	-0.00082052	-0.00550555
6588.95	-0.00082052	-0.00537784
6642.95	-0.000877742	-0.0050934
6696.95	-0.000877742	-0.00479006
6750.95	-0.00082052	-0.00474699
6804.95	-0.00082052	-0.00465874
6858.95	-0.000744223	-0.00440121
6912.95	-0.00091589	-0.0043602
6966.95	-0.000934964	-0.00429853
7020.95	-0.00101126	-0.00402218
7074.95	-0.000973113	-0.00410555
7128.95	-0.000934964	-0.0036844
7182.95	-0.000858668	-0.00387207
7236.95	-0.000858668	-0.00370694
7290.95	-0.000973113	-0.00324975
7344.95	-0.00082052	-0.00325695
7398.95	-0.000801446	-0.003403
7452.95	-0.00101126	-0.0031357
7506.95	-0.000763297	-0.00292264
7560.95	-0.000934964	-0.0026962
7614.95	-0.00091589	-0.0026385
7668.95	-0.000896816	-0.00259069
7722.95	-0.000858668	-0.00212886
7776.95	-0.000973113	-0.00231998
7830.95	-0.00104941	-0.00212969
7884.95	-0.000954038	-0.00181015
7938.95	-0.000839594	-0.00179317
7992.95	-0.000992187	-0.00159956
8046.95	-0.00082052	-0.00160803
8100.95	-0.000992187	-0.00148895
8154.95	-0.000877742	-0.00114377
8208.95	-0.000877742	-0.00130131
8262.95	-0.000744223	-0.00115492
8316.95	-0.000954038	-0.00100924
8370.95	-0.000744223	-0.000971168
8424.95	-0.000877742	-0.000856846
8478.95	-0.00082052	-0.000816018
8532.95	-0.000782372	-0.000845453
8586.95	-0.000839594	-0.00043254
8640.95	-0.000896816	-0.000489933
8694.95	-0.000839594	-0.000459911
8748.95	-0.000954038	-0.000235082
8802.95	-0.000896816	-0.000229951
8856.95	-0.000877742	-2.21999e-05
8910.95	-0.000992187	-1.33917e-05
8964.95	-0.000763297	3.08667e-05
9018.95	-0.000877742	0.000363743
9072.95	-0.000858668	0.000257691
9126.95	-0.000858668	0.000440382
9180.95	-0.00091589	0.000713153
9234.95	-0.000839594	0.000592854
9288.95	-0.000763297	0.000678944
9342.95	-0.00091589	0.000778264
9396.95	-0.000896816	0.000882866
9450.95	-0.000954038	0.00115702
9504.95	-0.00103033	0.000948766
9558.95	-0.000763297	0.00115535
9612.95	-0.000992187	0.00140295
9666.95	-0.000896816	0.00113371
9720.95	-0.000934964	0.00125332
9774.95	-0.000877742	0.00144235
9828.95	-0.00103033	0.00144311
9882.95	-0.000858668	0.00163949
9936.95	-0.00110663	0.00155522
9990.95	-0.000954038	0.00169305
10045	-0.000801446	0.00210127
10099	-0.000992187	0.00185127
10153	-0.000877742	0.00188651
10207	-0.000896816	0.00204711
10261	-0.000954038	0.00209039
10315	-0.000973113	0.00222029
10369	-0.00091589	0.00218137
10423	-0.000954038	0.00232927
10477	-0.000954038	0.00268386
10531	-0.000934964	0.00242518
10585	-0.000973113	0.00249176
10639	-0.000763297	0.00271836
10693	-0.000973113	0.00269951
10747	-0.000877742	0.00279527
10801	-0.000877742	0.00278686
10855	-0.000801446	0.00290359
10909	-0.000858668	0.00324738
10963	-0.000858668	0.00298806
11017	-0.00091589	0.00296544
11071	-0.000992187	0.00323135
11125	-0.000839594	0.00319977
11179	-0.00108756	0.00322801
11233	-0.000896816	0.00327458
11287	-0.000858668	0.00334668
11341	-0.000877742	0.00357364
11395	-0.00091589	0.00345061
11449	-0.000992187	0.00351838
11503	-0.000877742	0.00374236
11557	-0.000877742	0.00372247
11611	-0.000877742	0.00362585
11665	-0.000934964	0.00374502
11719	-0.000877742	0.00378309
11773	-0.000877742	0.0039731
11827	-0.000934964	0.00381242
11881	-0.000687001	0.0039946
11935	-0.00082052	0.00415137
11989	-0.000954038	0.00397438
12043	-0.000801446	0.00406395
12097	-0.000992187	0.00417005
12151	-0.000992187	0.00419625
12205	-0.000973113	0.00436863
12259	-0.000973113	0.00429823
12313	-0.000896816	0.00439193
12367	-0.000877742	0.00461863
12421	-0.000954038	0.00438451
12475	-0.000973113	0.00435476
12529	-0.000954038	0.00465564
12583	-0.000801446	0.00464737
12637	-2.00084	-30.452
12691	-2.00087	-14.8179
12745	-2.00099	-10.0704
12799	-2.00085	-7.72698
12853	-2.00099	-6.35679
12907	-2.00084	-5.41139
12961	-2.00093	-4.79802
13015	-2.00082	-4.2599
13069	-2.00084	-4.04051
13123	-2.00082	-3.77279
13177	-2.00099	-3.53829
13231	-2.00101	-3.34136
13285	-2.00093	-3.20814
13339	-2.00089	-3.07001
13393	-2.00076	-2.99524
13447	-2.00085	-2.88422
13501	-0.00091589	134.732
13555	-0.000954038	1.23208
13609	-0.000782372	0.606212
13663	-0.000973113	0.423462
13717	-0.000934964	0.336576
13771	-0.000954038	0.288292
13825	-0.000954038	0.256794
13879	-0.000877742	0.233292
13933	-0.00091589	0.215796
13987	-0.000744223	0.200949
14041	-0.000877742	0.189001
14095	-0.000763297	0.17956
14149	-0.000801446	0.169749
14203	-0.000763297	0.16216
14257	-0.00091589	0.155541
14311	-0.00103033	0.148644
14365	-0.000954038	0.143371
14419	-0.000934964	0.137851
14473	-0.000858668	0.133242
14527	-0.00082052	0.129458
14581	-0.000934964	0.124615
14635	-0.000973113	0.121121
14689	-0.000877742	0.117902
14743	-0.000839594	0.114195
14797	-0.000896816	0.111492
14851	-0.000954038	0.108417
14905	-0.000973113	0.105895
14959	-0.000839594	0.103911
15013	-0.000801446	0.100959
15067	-0.000877742	0.0990854
15121	-0.00091589	0.0973846
15175	-0.000934964	0.0948585
15229	-0.00101126	0.0931952
15283	-0.000839594	0.091688
15337	-0.000877742	0.0897847
15391	-0.00082052	0.0886389
15445	-0.000934964	0.086564
15499	-0.00082052	0.0852454
15553	-0.000839594	0.0845657
15607	-0.000896816	0.0827092
15661	-0.000858668	0.0815969
15715	-0.00091589	0.0805766
15769	-0.000801446	0.0792976
15823	-0.000954038	0.0783087
15877	-0.000934964	0.0769846
15931	-0.000782372	0.0762741
15985	-0.000896816	0.0758018
16039	-0.000744223	0.0743389
16093	-0.000839594	0.0736363
16147	-0.000782372	0.0730818
16200	-0.000934964	0.0719909