Folder: Nickel_Dithiolene_Research_Experimental_Data/Data_18_Experiment

Note: README.md
# Nickel_Dithiolene_Research_Experimental_Data
Init_Data
This is a data repository that support the findings in the manuscript "Electrochemically Modulated Separation of Olefin-Paraffin Gas Mixtures in Membrane Electrode Assemblies". All uploaded codes use Matlab software version 2022A or above. All codes can be run on operating system windows 10 or above on any PC with sufficient memory to run Matlab. Refer to the System Requirements Page for Matlab at https://www.mathworks.com/support/requirements/matlab-system-requirements.html for further information.

On matlab, run the script "Graph_Results_Summary_v01" to plot all relevant graphs that are shown in the main manuscript. Further details including Gas Chromatographs of all experimental recordings can be found in individual numbered data folder. To find the appropriate data folder, refer to the excel spreadsheet "Result_Summary" which contains tables of summary data. Each column is labeled by the data folder number to which it pertains to.

In each data folder, it contains all appropriate raw chromatograph data from the MIcro GC 990 as ASCII file in "Compiled_Data" folder. Matlab codes used to analyze the gas chromatographs and chronoamperometry data are also included in each numbered data folder. To output and analyze the raw chromatograph data, run the script "Micro_GC_990_Data_Spreadsheet_Summary_v01". Be sure to edit the path_address within the Matlab script to direct the code to analyze the raw files from the appropriate address in your computer (e.g. C:\Users\Default\Documents\Compiled_Data\). To output the graphs shown in the Supplementary Information, run the script MEA_Experimental_Result_v01. Raw Chronoamperometry data (as text file) from the Potentiostat is included in each numbered data folder.

File: CA_001_C01.txt
time/s	Ewe/V	<I>/mA
1	1.49937	128.332
193	1.49966	2.53831
385	1.49951	1.85976
577	1.49918	1.63719
769	1.49936	1.52175
961	1.49945	1.44728
1153	1.50006	1.38702
1345	1.49924	1.33349
1537	1.49941	1.29911
1729	1.49949	1.26698
1920.96	-0.000784183	0.0333063
2112.96	-0.000498072	0.120998
2304.96	-0.000593442	0.0683409
2496.96	-0.00086048	0.0462176
2688.96	-0.000879554	0.0369768
2880.96	-0.000383627	0.0310168
3072.96	-0.000459924	0.0275709
3264.96	-0.000993999	0.0254093
3456.96	-0.000669739	0.0233526
3648.96	-0.00118474	0.0217391
3840.96	-0.000879554	0.0206881
4032.96	-0.000593442	0.019443
4224.96	-0.000974924	0.0184916
4416.96	-0.000993999	0.0178698
4608.96	-0.000841406	0.0169673
4800.96	-0.000803258	0.0163498
4992.96	-0.000669739	0.0159474
5184.96	-0.000765109	0.0152929
5376.96	-0.000555294	0.0148225
5568.96	-0.000669739	0.0145129
5760.96	-0.000936776	0.0140749
5952.96	-0.000936776	0.0136988
6144.96	-0.00166159	0.0133663
6336.96	-0.000421776	0.0130585
6528.96	-0.000765109	0.012657
6720.96	-0.00108937	0.0124777
6912.96	-0.000879554	0.0121186
7104.96	-0.00126104	0.0120374
7296.96	-0.00095585	0.011761
7488.96	-0.000879554	0.0113937
7680.96	-0.000707887	0.0112677
7872.96	-0.00108937	0.0110567
8064.96	-0.00095585	0.0108019
8256.96	-0.000555294	0.010607
8448.96	-0.000803258	0.0104987
8640.96	-0.00145178	0.0103224
8832.96	-0.00110844	0.0102048
9024.96	-0.000841406	0.00998407
9216.96	-0.000421776	0.00987136
9408.96	-0.000612517	0.00975394
9600.96	-0.000936776	0.00952289
9792.96	-0.000650665	0.00951984
9984.96	-0.00137548	0.00931979
10177	-0.000726961	0.00928723
10369	-0.000936776	0.00920767
10561	-0.00128011	0.00904188
10753	-0.000574368	0.00897382
10945	-1.00069	-0.840898
11137	-1.00086	-0.4175
11329	-1.00027	-0.291455
11521	-1.00074	-0.229327
11713	-0.000765109	2.43683
11905	-0.00114659	0.253172
12097	-0.000746035	0.153001
12289	-0.000402701	0.111594
12481	-0.00181418	0.088534
12673	-0.000898628	0.0739372
12865	-0.00095585	0.0631995
13057	-0.000898628	0.0555943
13249	-0.00118474	0.0497134
13441	-0.000841406	0.0447816
13633	-0.000974924	0.0409326
13825	-0.000993999	0.0379805
14017	-0.000765109	0.035286
14209	-0.000917702	0.0329675
14401	1.4992	138.596
14593	1.49945	2.26412
14785	1.49936	1.69925
14977	1.49949	1.50548
15169	1.49945	1.40282
15361	1.49909	1.34365
15553	1.49934	1.29074
15745	1.49926	1.2418
15937	1.49917	1.21904
16129	1.49917	1.19278
16321	-0.000917702	0.0273176
16513	-0.000574368	0.119918
16705	-0.000459924	0.0694553
16897	-0.000898628	0.0472825
17089	-0.0014327	0.0367828
17281	-0.000822332	0.0312035
17473	-0.00101307	0.0280048
17665	-0.00105122	0.0252023
17857	-0.000993999	0.0232307
18049	-0.000822332	0.0218631
18241	-0.000765109	0.020478
18433	-0.000250109	0.019381
18625	-0.00053622	0.0185731
18817	-0.00105122	0.0179283
19009	-0.00105122	0.0169899
19201	-0.000555294	0.0165542
19393	-0.00116567	0.0158483
19585	-0.000898628	0.015367
19777	-0.000650665	0.0149159
19969	-0.000803258	0.0144856
20161	-0.000822332	0.0140836
20353	-0.000898628	0.0138153
20545	-0.000784183	0.0135313
20737	-0.000879554	0.0131155
20929	-0.000688813	0.012824
21121	-0.000631591	0.0126944
21313	-0.00101307	0.0123244
21505	-0.000917702	0.0121272
21697	-0.000498072	0.0119613
21889	-0.000593442	0.0116846
22081	-0.000478998	0.0114981
22273	-0.00101307	0.0113262
22465	-0.00105122	0.0110569
22657	-0.000421776	0.0111034
22849	-0.000784183	0.0108444
23041	-0.000822332	0.0104718
23233	-0.000612517	0.0103026
23425	-0.000879554	0.010327
23617	-0.000669739	0.0100295
23809	-0.000841406	0.00977338
24001	-0.00103215	0.00991708
24193	-0.000917702	0.00967115
24385	-0.000421776	0.00961251
24577	-0.00128011	0.00955067
24769	-0.000421776	0.00923102
24961	-0.00145178	0.0093773
25153	-0.000974924	0.00913381
25345	-1.0008	-0.755317
25537	-1.00074	-0.374517
25729	-1.00042	-0.262437
25921	-1.00099	-0.207386
26113	-0.000478998	2.3966
26305	-0.000574368	0.23846
26497	-0.000841406	0.143352
26689	-0.000879554	0.104268
26881	-0.000822332	0.0827711
27073	-0.000784183	0.0689385
27265	-0.000746035	0.059197
27457	-0.000879554	0.0520531
27649	-0.000707887	0.0466142
27841	-0.000974924	0.0420993
28033	-0.000841406	0.0384892
28225	-0.000974924	0.0356494
28417	-0.00101307	0.0331734
28609	-0.00086048	0.0309853
28801	1.49926	137.106
28993	1.49855	2.16203
29185	1.49958	1.63417
29377	1.49941	1.45256
29569	1.49928	1.36526
29761	1.49918	1.30591
29953	1.49951	1.25043
30145	1.49924	1.22476
30337	1.4993	1.19618
30529	1.49966	1.15854
30721	-0.000784183	0.0396911
30913	-0.000421776	0.118632
31105	-0.00053622	0.0697337
31297	-0.000898628	0.0472371
31489	-0.000803258	0.0365137
31681	-0.00118474	0.0308121
31873	-0.00095585	0.0272868
32065	-0.000803258	0.0245543
32257	-0.000631591	0.0225
32449	-0.000498072	0.0211834
32641	-0.000993999	0.0196228
32833	-0.000993999	0.0186856
33025	-0.000936776	0.0180619
33217	-0.00086048	0.0168643
33409	-0.000765109	0.0161113
33601	-0.000726961	0.0156793
33793	-0.000631591	0.0150835
33985	-0.00114659	0.0145278
34177	-0.000612517	0.0141539
34369	-0.000879554	0.01374
34561	-0.000631591	0.0132646
34753	-0.000421776	0.013129
34945	-0.000478998	0.0126669
35137	-0.000421776	0.012302
35329	-0.00114659	0.0122281
35521	-0.000345479	0.0118517
35713	-0.000917702	0.0115837
35905	-0.000974924	0.0114166
36097	-0.000879554	0.0110169
36289	-0.00103215	0.0109838
36481	-0.000898628	0.0107486
36673	-0.00086048	0.0105967
36865	-0.000879554	0.0102679
37057	-0.000974924	0.010326
37249	-0.000707887	0.0100569
37441	-0.00095585	0.00995923
37633	-0.00107029	0.00970289
37825	-0.000803258	0.00961916
38017	-0.000421776	0.0095812
38209	-0.000879554	0.00941117
38401	-0.000898628	0.00921692
38593	-0.000898628	0.00911023
38785	-0.000574368	0.00905386
38977	-0.000498072	0.00893779
39169	-0.000631591	0.00871443
39361	-0.000650665	0.00878957
39553	-0.000898628	0.00868554
39745	-1.00059	-0.690996
39937	-1.00053	-0.34274
40129	-1.00107	-0.241886
40321	-1.00067	-0.190919
40513	-0.00107029	2.37825
40705	-0.000688813	0.224792
40897	-0.000993999	0.132782
41089	-0.000746035	0.0962124
41281	-0.000650665	0.0764981
41473	-0.00112752	0.0635224
41665	-0.000765109	0.054479
41857	-0.00116567	0.0478989
42049	-0.00095585	0.0426745
42241	-0.000459924	0.038683
42433	-0.00110844	0.0355595
42625	-0.000707887	0.0328274
42817	-0.00105122	0.0305132
43009	-0.000784183	0.0287341
43201	1.49913	134.541
43393	1.49947	2.14573
43585	1.49911	1.63089
43777	1.49928	1.46092
43969	1.4992	1.37236
44161	1.49932	1.309
44353	1.49964	1.266
44545	1.49888	1.2334
44737	1.49897	1.19966
44929	1.49976	1.17401
45121	-0.000726961	0.0347853
45313	-0.000879554	0.116
45505	-0.00112752	0.0711025
45697	-0.000936776	0.0468565
45889	-0.000612517	0.0360625
46081	-0.000517146	0.0306787
46273	-0.00114659	0.0265154
46465	-0.00086048	0.0238471
46657	-0.00103215	0.0222111
46849	-0.000784183	0.020343
47041	-0.000421776	0.0190826
47233	-0.00086048	0.0182321
47425	-0.000326405	0.0169739
47617	-0.000364553	0.0162781
47809	-0.000822332	0.0156109
48001	-0.00103215	0.014838
48193	-0.000993999	0.0144724
48385	-0.000498072	0.0139469
48577	-0.000917702	0.0133627
48769	-0.000650665	0.0128938
48961	-0.000612517	0.0127011
49153	-0.00108937	0.0121476
49345	-0.00103215	0.0119087
49537	-0.000993999	0.0117611
49729	-0.000669739	0.0113453
49921	-0.000746035	0.0111815
50113	-0.000784183	0.0110216
50305	-0.000574368	0.0106871
50497	-0.00086048	0.0103586
50689	-0.000765109	0.0101506
50881	-0.00053622	0.0101075
51073	-0.00103215	0.00987249
51265	-0.000765109	0.00968585
51457	-0.000822332	0.00955245
51649	-0.000879554	0.00949825
51841	-0.000822332	0.00926481
52033	-0.00131826	0.009187
52225	-0.00124196	0.00907982
52417	-0.000345479	0.00895467
52609	-0.00107029	0.00874027
52801	-0.000593442	0.00871478
52993	-0.000612517	0.00839038
53185	-0.000784183	0.00862339
53377	-0.000765109	0.00834663
53569	-0.00137548	0.00820193
53761	-0.000555294	0.00822674
53953	-0.000898628	0.00810429
54145	-1.00088	-0.642413
54337	-1.00059	-0.318903
54529	-1.00099	-0.224221
54721	-1.00116	-0.177779
54913	-0.00124196	2.37646
55105	-0.000498072	0.212656
55297	-0.000231034	0.124385
55489	-0.000803258	0.0897276
55681	-0.00095585	0.0710123
55873	-0.000421776	0.0588833
56065	-0.00135641	0.050708
56257	-0.00103215	0.0442784
56449	-0.000631591	0.0395788
56641	-0.000688813	0.0359479
56833	-0.000612517	0.032926
57025	-0.000612517	0.0302113
57217	-0.000974924	0.0283412
57409	-0.000478998	0.0265578
57600	-0.000841406	0.0252768