Folder: Nickel_Dithiolene_Research_Experimental_Data/Data_16_Experiment

Note: README.md
# Nickel_Dithiolene_Research_Experimental_Data
Init_Data
This is a data repository that support the findings in the manuscript "Electrochemically Modulated Separation of Olefin-Paraffin Gas Mixtures in Membrane Electrode Assemblies". All uploaded codes use Matlab software version 2022A or above. All codes can be run on operating system windows 10 or above on any PC with sufficient memory to run Matlab. Refer to the System Requirements Page for Matlab at https://www.mathworks.com/support/requirements/matlab-system-requirements.html for further information.

On matlab, run the script "Graph_Results_Summary_v01" to plot all relevant graphs that are shown in the main manuscript. Further details including Gas Chromatographs of all experimental recordings can be found in individual numbered data folder. To find the appropriate data folder, refer to the excel spreadsheet "Result_Summary" which contains tables of summary data. Each column is labeled by the data folder number to which it pertains to.

In each data folder, it contains all appropriate raw chromatograph data from the MIcro GC 990 as ASCII file in "Compiled_Data" folder. Matlab codes used to analyze the gas chromatographs and chronoamperometry data are also included in each numbered data folder. To output and analyze the raw chromatograph data, run the script "Micro_GC_990_Data_Spreadsheet_Summary_v01". Be sure to edit the path_address within the Matlab script to direct the code to analyze the raw files from the appropriate address in your computer (e.g. C:\Users\Default\Documents\Compiled_Data\). To output the graphs shown in the Supplementary Information, run the script MEA_Experimental_Result_v01. Raw Chronoamperometry data (as text file) from the Potentiostat is included in each numbered data folder.

File: CA_001_C01.txt
time/s	Ewe/V	<I>/mA
1	1.49911	156.216
193	1.49922	2.69774
385	1.49892	2.106
577	1.49947	1.86672
769	1.49951	1.73418
961	1.49901	1.6374
1153	1.49892	1.55987
1345	1.49949	1.51842
1537	1.49922	1.46583
1729	1.49922	1.41014
1920.98	-0.000631591	0.102756
2112.98	-0.000822332	0.0497021
2304.98	-0.00110844	0.0311721
2496.98	-0.000917702	0.0234741
2688.98	-0.000459924	0.0210209
2880.98	-0.000974924	0.019586
3072.98	-0.00133733	0.0179725
3264.98	-0.000803258	0.0171835
3456.98	-0.000746035	0.0167946
3648.98	-0.000784183	0.0150263
3840.98	-0.000898628	0.0157546
4032.98	-0.00103215	0.015557
4224.98	-0.000822332	0.0135306
4416.98	-0.000746035	0.0136328
4608.98	-0.000936776	0.0128885
4800.98	-0.000822332	0.0133871
4992.98	-0.000726961	0.012931
5184.98	-0.000746035	0.0137789
5376.98	-0.00086048	0.0117259
5568.98	-0.00128011	0.0128034
5760.98	-0.00095585	0.0130657
5952.98	-0.000822332	0.0120229
6144.98	-0.00086048	0.0117087
6336.98	-0.00108937	0.0123141
6528.98	-0.000688813	0.0116005
6720.98	-0.00107029	0.0112224
6912.98	-0.000974924	0.0109189
7104.98	-0.00086048	0.010679
7296.98	-0.000765109	0.0106468
7488.98	-0.00086048	0.0107798
7680.98	-0.00108937	0.0110413
7872.98	-0.000879554	0.0105174
8064.98	-0.000822332	0.0100841
8256.98	-0.000917702	0.0104217
8448.98	-0.000974924	0.00978965
8640.98	-0.00095585	0.00985737
8832.98	-0.000822332	0.00983727
9024.98	-0.000974924	0.00977158
9216.98	-0.000841406	0.00999143
9408.98	-0.000974924	0.00933125
9600.98	-0.000822332	0.00916604
9792.98	-0.000765109	0.00922709
9984.98	-0.000421776	0.00944537
10177	-0.00095585	0.00915912
10369	-0.000669739	0.00850735
10561	-0.000936776	0.00926047
10753	-0.000879554	0.00915074
10945	-0.000898628	0.0091752
11137	-0.000898628	0.00893997
11329	-0.000841406	0.00872685
11521	-0.000478998	0.00878249
11713	-0.000707887	0.00837733
11905	-0.000726961	0.00813467
12097	-0.00103215	0.00811403
12289	-0.000822332	0.00847323
12481	-0.000917702	0.00846643
12673	-0.000765109	0.00828467
12865	-0.000936776	0.00846204
13057	-0.00103215	0.00814684
13249	-0.000898628	0.00780698
13441	-0.000517146	0.00797818
13633	-0.000879554	0.0080772
13825	-0.000517146	0.00799078
14017	-0.000822332	0.00804489
14209	-0.00116567	0.00789786
14401	1.49905	81.5488
14593	1.49936	1.92282
14785	1.49934	1.63051
14977	1.49943	1.57191
15169	1.49922	1.50818
15361	1.49936	1.42817
15553	1.49907	1.45506
15745	1.49917	1.42441
15937	1.49937	1.35368
16129	1.49924	1.40203
16321	-0.00095585	0.00484555
16513	-0.000879554	0.01747
16705	-0.000898628	0.0161967
16897	-0.00145178	0.0154314
17089	-0.00095585	0.0150917
17281	-0.00118474	0.014336
17473	-0.000517146	0.0137267
17665	-0.000746035	0.01351
17857	-0.000993999	0.0130805
18049	-0.000936776	0.0124337
18241	-0.000974924	0.0119736
18433	-0.000765109	0.0121154
18625	-0.00086048	0.0116184
18817	-0.000746035	0.0111827
19009	-0.000612517	0.011255
19201	-0.000974924	0.0107514
19393	-0.000879554	0.0105209
19585	-0.000574368	0.0105654
19777	-0.000879554	0.010409
19969	-0.000917702	0.00998352
20161	-0.000765109	0.00984719
20353	-0.000841406	0.00976654
20545	-0.00101307	0.00944178
20737	-0.00108937	0.00952577
20929	-0.000631591	0.00921626
21121	-0.000688813	0.00907869
21313	-0.000879554	0.00909433
21505	-0.00108937	0.00876314
21697	-0.000765109	0.00874847
21889	-0.000555294	0.00873308
22081	-0.000707887	0.00820155
22273	-0.000765109	0.00837163
22465	-0.000631591	0.00844
22657	-0.000707887	0.00817908
22849	-0.00105122	0.00820764
23041	-0.00105122	0.00813033
23233	-0.00095585	0.0079275
23425	-0.00053622	0.00784024
23617	-0.000707887	0.00789954
23809	-0.000936776	0.00771668
24001	-0.00131826	0.00758735
24193	-0.00086048	0.00756298
24385	-0.000746035	0.00742729
24577	-0.000593442	0.00746099
24769	-0.000402701	0.00745795
24961	-0.00118474	0.0073455
25153	-0.00086048	0.00731084
25345	-0.000898628	0.00720344
25537	-0.00101307	0.00711989
25729	-0.000879554	0.00707012
25921	-0.000707887	0.00682098
26113	-0.000765109	0.00701907
26305	-0.00114659	0.00686039
26497	-0.000784183	0.00687765
26689	-0.00044085	0.00686166
26881	-0.00095585	0.00665421
27073	-0.000879554	0.00663074
27265	-0.000822332	0.00666657
27457	-0.000936776	0.00653299
27649	-0.000993999	0.0065728
27841	-0.00128011	0.00657194
28033	-0.00103215	0.00653621
28225	-0.000917702	0.00641857
28417	-0.000612517	0.00645654
28609	-0.000746035	0.00636064
28801	1.49924	80.0589
28993	1.49915	1.74401
29185	1.49939	1.55214
29377	1.49958	1.48754
29569	1.4993	1.41375
29761	1.49936	1.45251
29953	1.49939	1.44799
30145	1.49907	1.37365
30337	1.49901	1.41004
30529	1.49924	1.39981
30721	-0.000612517	-0.0480185
30913	-0.00107029	0.00202734
31105	-0.00128011	0.00865093
31297	-0.000784183	0.0107726
31489	-0.000936776	0.0116898
31681	-0.000879554	0.0116551
31873	-0.000707887	0.0115238
32065	-0.000879554	0.0114841
32257	-0.000765109	0.0109916
32449	-0.000688813	0.0109131
32641	-0.00112752	0.0108485
32833	-0.000765109	0.0104734
33025	-0.00086048	0.0102251
33217	-0.000841406	0.0100867
33409	-0.00131826	0.00974146
33601	-0.00110844	0.00968462
33793	-0.000688813	0.00956149
33985	-0.000898628	0.00923074
34177	-0.000879554	0.00906734
34369	-0.000993999	0.00894004
34561	-0.000879554	0.00877336
34753	-0.00108937	0.00857736
34945	-0.000746035	0.00847863
35137	-0.00122289	0.00833369
35329	-0.00120381	0.00813365
35521	-0.000822332	0.00804629
35713	-0.000593442	0.00797
35905	-0.000974924	0.00779919
36097	-0.00101307	0.00781212
36289	-0.000879554	0.0076731
36481	-0.000879554	0.00752957
36673	-0.00105122	0.0074316
36865	-0.000517146	0.0074192
37057	-0.000841406	0.00718574
37249	-0.00148993	0.00721612
37441	-0.000936776	0.00712821
37633	-0.00086048	0.00713977
37825	-0.000803258	0.00698694
38017	-0.000688813	0.00698738
38209	-0.000974924	0.00692225
38401	-0.000765109	0.00673206
38593	-0.000841406	0.00673911
38785	-0.000898628	0.00665733
38977	-0.000803258	0.00660527
39169	-0.00086048	0.00657265
39361	-0.000688813	0.00641941
39553	-0.000841406	0.00637451
39745	-0.000974924	0.00631857
39937	-0.000822332	0.00628589
40129	-0.000898628	0.00625619
40321	-0.00133733	0.00617192
40513	-0.000974924	0.00611986
40705	-0.000822332	0.00612023
40897	-0.00103215	0.00606841
41089	-0.000822332	0.00596639
41281	-0.000288257	0.00600585
41473	-0.000726961	0.00595938
41665	-0.000898628	0.00584338
41857	-0.000936776	0.00588528
42049	-0.000726961	0.00579249
42241	-0.000803258	0.00567755
42433	-0.00120381	0.00575154
42625	-0.000707887	0.00565279
42817	-0.000822332	0.00569035
43009	-0.000974924	0.00558578
43201	1.49922	78.9765
43393	1.49943	1.66203
43585	1.49922	1.50873
43777	1.49928	1.44911
43969	1.49945	1.4288
44161	1.49886	1.4435
44353	1.49903	1.39147
44545	1.49928	1.36588
44737	1.49934	1.40879
44929	1.49932	1.37494
45121	-0.00103215	-0.0783104
45313	-0.000803258	-0.00996342
45505	-0.000803258	0.0020015
45697	-0.000784183	0.00638468
45889	-0.000936776	0.00834088
46081	-0.000822332	0.00874761
46273	-0.000593442	0.00926866
46465	-0.000803258	0.00944277
46657	-0.000784183	0.00933396
46849	-0.000688813	0.0092658
47041	-0.000688813	0.00906297
47233	-0.00044085	0.0089419
47425	-0.000841406	0.00896722
47617	-0.000555294	0.00877733
47809	-0.000974924	0.00861134
48001	-0.000726961	0.00824204
48193	-0.00110844	0.00833444
48385	-0.000879554	0.00813879
48577	-0.00095585	0.00798027
48769	-0.000726961	0.00790515
48961	-0.00105122	0.00779258
49153	-0.000917702	0.0077986
49345	-0.000650665	0.00755977
49537	-0.000765109	0.00736412
49729	-0.00114659	0.00733274
49921	-0.000841406	0.00727901
50113	-0.000841406	0.00710157
50305	-0.000803258	0.00695064
50497	-0.00118474	0.00704535
50689	-0.00101307	0.00692051
50881	-0.00116567	0.00670294
51073	-0.000421776	0.0068031
51265	-0.00114659	0.00656617
51457	-0.000974924	0.00648193
51649	-0.00103215	0.00655136
51841	-0.000993999	0.00644628
52033	-0.00086048	0.00634457
52225	-0.000841406	0.00632407
52417	-0.000784183	0.00627617
52609	-0.000765109	0.00617759
52801	-0.000917702	0.00613496
52993	-0.000803258	0.00599719
53185	-0.000784183	0.00602849
53377	-0.000803258	0.00593864
53569	-0.000879554	0.00597799
53761	-0.000726961	0.00579212
53953	-0.000574368	0.00576148
54145	-0.00114659	0.00566779
54337	-0.000765109	0.00575229
54529	-0.00137548	0.00576093
54721	-0.000974924	0.005677
54913	-0.000879554	0.00562227
55105	-0.000784183	0.00550312
55297	-0.000612517	0.0054797
55489	-0.000574368	0.0054323
55681	-0.000364553	0.00550918
55873	-0.000898628	0.00534559
56065	-0.000917702	0.00532204
56257	-0.000517146	0.00525523
56449	-0.00086048	0.00522926
56641	-0.000707887	0.00529728
56833	-0.00086048	0.00523623
57025	-0.000784183	0.00516131
57217	-0.000917702	0.00508832
57409	-0.000746035	0.00507947
57600	-0.000822332	0.00507723