Folder: Nickel_Dithiolene_Research_Experimental_Data/Data_15_Experiment

Note: README.md
# Nickel_Dithiolene_Research_Experimental_Data
Init_Data
This is a data repository that support the findings in the manuscript "Electrochemically Modulated Separation of Olefin-Paraffin Gas Mixtures in Membrane Electrode Assemblies". All uploaded codes use Matlab software version 2022A or above. All codes can be run on operating system windows 10 or above on any PC with sufficient memory to run Matlab. Refer to the System Requirements Page for Matlab at https://www.mathworks.com/support/requirements/matlab-system-requirements.html for further information.

On matlab, run the script "Graph_Results_Summary_v01" to plot all relevant graphs that are shown in the main manuscript. Further details including Gas Chromatographs of all experimental recordings can be found in individual numbered data folder. To find the appropriate data folder, refer to the excel spreadsheet "Result_Summary" which contains tables of summary data. Each column is labeled by the data folder number to which it pertains to.

In each data folder, it contains all appropriate raw chromatograph data from the MIcro GC 990 as ASCII file in "Compiled_Data" folder. Matlab codes used to analyze the gas chromatographs and chronoamperometry data are also included in each numbered data folder. To output and analyze the raw chromatograph data, run the script "Micro_GC_990_Data_Spreadsheet_Summary_v01". Be sure to edit the path_address within the Matlab script to direct the code to analyze the raw files from the appropriate address in your computer (e.g. C:\Users\Default\Documents\Compiled_Data\). To output the graphs shown in the Supplementary Information, run the script MEA_Experimental_Result_v01. Raw Chronoamperometry data (as text file) from the Potentiostat is included in each numbered data folder.

File: CA_001_C01.txt
time/s	Ewe/V	<I>/mA
1	1.49942	175.162
193	1.49952	4.65002
385	1.49923	3.90366
577	1.49925	3.79309
769	1.49933	3.75157
961	1.49929	3.73553
1153	1.49937	3.74147
1345	1.49931	3.8359
1537	1.4995	3.85506
1729	1.49933	3.89125
1920.95	-0.00105971	0.478425
2112.95	-0.000983412	0.213886
2304.95	-0.00100249	0.151598
2496.95	-0.00092619	0.12399
2688.95	-0.00102156	0.105364
2880.95	-0.000964338	0.0904578
3072.95	-0.000907116	0.08074
3264.95	-0.00100249	0.0721335
3456.95	-0.00102156	0.0651938
3648.95	-0.00102156	0.0600885
3840.95	-0.00100249	0.0557425
4032.95	-0.00115508	0.0517016
4224.95	-0.00105971	0.0490012
4416.95	-0.00115508	0.0464555
4608.95	-0.00104063	0.0442441
4800.95	-0.00104063	0.0430733
4992.95	-0.00107878	0.0415028
5184.95	-0.00100249	0.0405182
5376.95	-0.00109786	0.0397652
5568.95	-0.00113601	0.0388705
5760.95	-0.000907116	0.0380412
5952.95	-0.000907116	0.037371
6144.95	-0.00105971	0.036596
6336.95	-0.00107878	0.0359074
6528.95	-0.00092619	0.0352667
6720.95	-0.00107878	0.0345389
6912.95	-0.00111693	0.0336902
7104.95	-0.00109786	0.0330621
7296.95	-0.00105971	0.0324118
7488.95	-0.00113601	0.0318718
7680.95	-0.00102156	0.0309566
7872.95	-0.00100249	0.0304765
8064.95	-0.00113601	0.029948
8256.95	-0.00092619	0.0293145
8448.95	-0.00104063	0.0287101
8640.95	-0.00107878	0.0282332
8832.95	-0.00105971	0.0280077
9024.95	-0.00107878	0.0274288
9216.95	-0.00102156	0.0270347
9408.95	-0.00111693	0.0266313
9600.95	-0.00107878	0.0261359
9792.95	-0.00105971	0.0258241
9984.95	-0.00111693	0.0254032
10177	-0.00107878	0.025174
10369	-0.00105971	0.0249119
10561	-0.00105971	0.0245698
10753	-0.000945264	0.0242929
10945	-2.00092	-9.63155
11137	-2.00086	-6.44586
11329	-2.00085	-5.65994
11521	-2.00085	-5.55665
11713	-0.00119323	8.85153
11905	-0.00100249	1.80041
12097	-0.00102156	1.49867
12289	-0.00092619	1.29338
12481	-0.00083082	1.12077
12673	-0.00105971	0.99008
12865	-0.00102156	0.880363
13057	-0.00117415	0.76948
13249	-0.00100249	0.670087
13441	-0.00107878	0.572474
13633	-0.000983412	0.468004
13825	-0.00107878	0.402748
14017	-0.000868968	0.354367
14209	-0.00109786	0.307055
14401	1.49919	213.512
14593	1.49919	12.5465
14785	1.49937	7.72763
14977	1.49933	5.78633
15169	1.49939	4.71428
15361	1.4994	4.04515
15553	1.49929	3.56422
15745	1.49929	3.18763
15937	1.49933	2.90746
16129	1.49918	2.67837
16321	-0.00109786	0.0716487
16513	-0.00109786	0.0896254
16705	-0.00100249	0.0661143
16897	-0.00104063	0.0571485
17089	-0.000983412	0.0510141
17281	-0.00100249	0.0470611
17473	-0.000907116	0.0444529
17665	-0.000945264	0.041743
17857	-0.00105971	0.0393877
18049	-0.000888042	0.0375786
18241	-0.000983412	0.0370847
18433	-0.00107878	0.0353719
18625	-0.00105971	0.0343755
18817	-0.00104063	0.034421
19009	-0.00107878	0.0331037
19201	-0.00113601	0.0322545
19393	-0.00102156	0.0319133
19585	-0.00115508	0.0304715
19777	-0.000907116	0.0302251
19969	-0.00109786	0.0297307
20161	-0.00117415	0.0285251
20353	-0.00100249	0.0281159
20545	-0.000983412	0.0280787
20737	-0.00102156	0.0271052
20929	-0.00104063	0.0268273
21121	-0.00100249	0.0265138
21313	-0.00092619	0.0261681
21505	-0.00113601	0.0255935
21697	-0.00115508	0.0253676
21889	-0.000983412	0.0247306
22081	-0.00104063	0.0245442
22273	-0.00109786	0.0243936
22465	-0.00105971	0.0241192
22657	-0.00107878	0.0236104
22849	-0.000983412	0.0234655
23041	-0.00111693	0.0231026
23233	-0.00104063	0.0228114
23425	-0.00107878	0.0225188
23617	-0.00104063	0.0225617
23809	-0.00111693	0.0221357
24001	-0.00119323	0.021857
24193	-0.000945264	0.02189
24385	-0.00109786	0.0215118
24577	-0.00109786	0.0212991
24769	-0.00102156	0.0215169
24961	-0.00107878	0.0209868
25153	-0.00119323	0.0206827
25345	-2.00079	-11.5913
25537	-2.00085	-5.39347
25729	-2.00088	-3.96378
25921	-2.00088	-3.45748
26113	-0.000964338	8.10616
26305	-0.00104063	1.03256
26497	-0.00105971	0.787348
26689	-0.00111693	0.658246
26881	-0.000964338	0.581433
27073	-0.00109786	0.532502
27265	-0.000907116	0.479821
27457	-0.000945264	0.443113
27649	-0.00092619	0.416323
27841	-0.000907116	0.383346
28033	-0.00107878	0.357272
28225	-0.00111693	0.336165
28417	-0.00111693	0.310137
28609	-0.000983412	0.288103
28801	1.49929	198.052
28993	1.49912	7.54757
29185	1.49925	5.20077
29377	1.49939	4.15699
29569	1.49939	3.54952
29761	1.49942	3.13074
29953	1.49929	2.81692
30145	1.4994	2.57704
30337	1.49921	2.38267
30529	1.49931	2.21506
30721	-0.00092619	0.0276673
30913	-0.00107878	0.0718969
31105	-0.00111693	0.0627016
31297	-0.000945264	0.0584021
31489	-0.000907116	0.0543134
31681	-0.00109786	0.0513084
31873	-0.00105971	0.050108
32065	-0.00104063	0.0474725
32257	-0.00105971	0.0458019
32449	-0.00105971	0.0448539
32641	-0.00105971	0.0426297
32833	-0.00100249	0.0412126
33025	-0.000907116	0.0404097
33217	-0.000964338	0.0388593
33409	-0.00104063	0.0376691
33601	-0.000983412	0.03684
33793	-0.00100249	0.0353983
33985	-0.00100249	0.0345429
34177	-0.000945264	0.0337355
34369	-0.00102156	0.0326666
34561	-0.000964338	0.0319349
34753	-0.00105971	0.0312962
34945	-0.00104063	0.0304801
35137	-0.000888042	0.0297563
35329	-0.00113601	0.0289414
35521	-0.00107878	0.0286601
35713	-0.00117415	0.0277236
35905	-0.00107878	0.0270365
36097	-0.000945264	0.0270587
36289	-0.00102156	0.0262715
36481	-0.000964338	0.0255456
36673	-0.00105971	0.0256542
36865	-0.00117415	0.0248367
37057	-0.000964338	0.0242441
37249	-0.00107878	0.0243965
37441	-0.00083082	0.0234561
37633	-0.000964338	0.0229915
37825	-0.00104063	0.0232085
38017	-0.00100249	0.0224428
38209	-0.000964338	0.02193
38401	-0.000964338	0.0222135
38593	-0.00105971	0.0213791
38785	-0.00107878	0.0209379
38977	-0.00083082	0.021073
39169	-0.000945264	0.0204108
39361	-0.00113601	0.020121
39553	-0.00111693	0.0201071
39745	-2.00069	-8.79505
39937	-2.0009	-4.58437
40129	-2.00086	-3.40959
40321	-2.00075	-2.91112
40513	-0.000964338	7.67875
40705	-0.000983412	0.763894
40897	-0.00102156	0.515798
41089	-0.00107878	0.425484
41281	-0.000945264	0.381244
41473	-0.000964338	0.346581
41665	-0.00109786	0.320478
41857	-0.00104063	0.299732
42049	-0.00107878	0.280556
42241	-0.000907116	0.262991
42433	-0.00113601	0.247266
42625	-0.00105971	0.233611
42817	-0.00092619	0.218265
43009	-0.00102156	0.204753
43201	1.49944	154.704
43393	1.49923	5.19983
43585	1.49916	3.58938
43777	1.49935	2.97434
43969	1.4994	2.63635
44161	1.49931	2.39292
44353	1.49942	2.19921
44545	1.49942	2.05983
44737	1.49921	1.94056
44929	1.4995	1.83686
45121	-0.00107878	-0.00720968
45313	-0.00105971	0.0407671
45505	-0.00104063	0.042716
45697	-0.00105971	0.041342
45889	-0.00113601	0.0400892
46081	-0.00107878	0.0391173
46273	-0.00105971	0.0374932
46465	-0.00113601	0.0362958
46657	-0.00102156	0.0352683
46849	-0.00105971	0.0340712
47041	-0.00100249	0.033064
47233	-0.00104063	0.0321893
47425	-0.00105971	0.0313894
47617	-0.00111693	0.0304202
47809	-0.00109786	0.0296062
48001	-0.00104063	0.0291923
48193	-0.00109786	0.0282996
48385	-0.00115508	0.0274984
48577	-0.00113601	0.0274573
48769	-0.00102156	0.0263795
48961	-0.00107878	0.0257832
49153	-0.000945264	0.0258751
49345	-0.00105971	0.0249342
49537	-0.00109786	0.0242353
49729	-0.00104063	0.0244591
49921	-0.00109786	0.0235028
50113	-0.00109786	0.0230059
50305	-0.00109786	0.0231245
50497	-0.000945264	0.0223066
50689	-0.00104063	0.0218447
50881	-0.00102156	0.0218659
51073	-0.000964338	0.0212102
51265	-0.00100249	0.0207953
51457	-0.00115508	0.0207517
51649	-0.00113601	0.0202608
51841	-0.00083082	0.0199517
52033	-0.00100249	0.01977
52225	-0.00104063	0.0194064
52417	-0.00107878	0.0191484
52609	-0.00109786	0.0189492
52801	-0.000964338	0.0186621
52993	-0.00109786	0.0184125
53185	-0.00107878	0.0181294
53377	-0.000888042	0.0180007
53569	-0.00102156	0.0177487
53761	-0.000888042	0.0174472
53953	-0.00105971	0.0175251
54145	-2.00081	-6.75176
54337	-2.00088	-4.01417
54529	-2.00088	-3.05719
54721	-2.00085	-2.75383
54913	-0.00111693	7.45824
55105	-0.000983412	0.668325
55297	-0.00105971	0.414987
55489	-0.00100249	0.322807
55681	-0.00123138	0.288033
55873	-0.00109786	0.261488
56065	-0.00102156	0.241182
56257	-0.00111693	0.226456
56449	-0.00107878	0.20942
56641	-0.00113601	0.195029
56833	-0.000888042	0.183888
57025	-0.000964338	0.169629
57217	-0.00105971	0.157209
57409	-0.00109786	0.146712
57600	-0.000983412	0.134703