Folder: Nickel_Dithiolene_Research_Experimental_Data/Data_33_Experiment

Note: README.md
# Nickel_Dithiolene_Research_Experimental_Data
Init_Data
This is a data repository that support the findings in the manuscript "Electrochemically Modulated Separation of Olefin-Paraffin Gas Mixtures in Membrane Electrode Assemblies". All uploaded codes use Matlab software version 2022A or above. All codes can be run on operating system windows 10 or above on any PC with sufficient memory to run Matlab. Refer to the System Requirements Page for Matlab at https://www.mathworks.com/support/requirements/matlab-system-requirements.html for further information.

On matlab, run the script "Graph_Results_Summary_v01" to plot all relevant graphs that are shown in the main manuscript. Further details including Gas Chromatographs of all experimental recordings can be found in individual numbered data folder. To find the appropriate data folder, refer to the excel spreadsheet "Result_Summary" which contains tables of summary data. Each column is labeled by the data folder number to which it pertains to.

In each data folder, it contains all appropriate raw chromatograph data from the MIcro GC 990 as ASCII file in "Compiled_Data" folder. Matlab codes used to analyze the gas chromatographs and chronoamperometry data are also included in each numbered data folder. To output and analyze the raw chromatograph data, run the script "Micro_GC_990_Data_Spreadsheet_Summary_v01". Be sure to edit the path_address within the Matlab script to direct the code to analyze the raw files from the appropriate address in your computer (e.g. C:\Users\Default\Documents\Compiled_Data\). To output the graphs shown in the Supplementary Information, run the script MEA_Experimental_Result_v01. Raw Chronoamperometry data (as text file) from the Potentiostat is included in each numbered data folder.

File: CA_001_C01.txt
time/s	Ewe/V	<I>/mA
1	1.49951	343.383
217	1.49959	15.4037
433	1.49932	14.674
649	1.49943	12.7444
865	1.4996	10.646
1081	1.49949	8.90864
1297	1.49951	7.43568
1513	1.49951	6.18898
1729	1.49949	5.21795
1945	1.49951	4.43488
2161	1.49951	3.86643
2377	1.49955	3.41255
2593	1.49951	3.06744
2809	1.49936	2.77357
3025	1.49968	2.54912
3241	1.49943	2.34343
3457	1.49949	2.18245
3672.98	-0.00103115	-0.223059
3888.98	-0.000897627	-0.0489416
4104.98	-0.000897627	-0.0139356
4320.98	-0.000973923	-0.00268008
4536.98	-0.000916701	0.0080466
4752.99	-0.000935775	0.0112656
4968.99	-0.000878553	0.0148801
5184.99	-0.000878553	0.017665
5400.99	-0.000916701	0.0185503
5616.99	-0.000802256	0.0197922
5832.99	-0.00082133	0.0186705
6048.99	-0.000973923	0.0213774
6264.99	-0.000878553	0.0201298
6480.99	-0.00101207	0.0229075
6696.99	-0.000840404	0.020512
6912.99	-0.00103115	0.0224361
7128.99	-0.00108837	0.018511
7344.99	-0.000859479	0.0225236
7560.99	-0.000878553	0.0193808
7776.99	-0.000897627	0.0221643
7992.99	-0.000954849	0.0195313
8208.99	-0.000954849	0.0219276
8424.99	-0.000878553	0.019237
8640.99	-0.000935775	0.0220194
8856.99	-0.000954849	0.0199734
9072.99	-0.000840404	0.022222
9288.99	-0.000859479	0.0190128
9504.99	-0.000783182	0.0214274
9720.99	-0.000954849	0.0199409
9936.99	-0.000973923	0.0210026
10153	-0.000954849	0.0201765
10369	-0.000954849	0.0210355
10585	-0.00072596	0.0196425
10801	-0.000859479	0.0200187
11017	-0.000954849	0.0194636
11233	-0.000954849	0.0196161
11449	-0.000897627	0.0193151
11665	-0.000954849	0.0193243
11881	-0.000954849	0.0203387
12097	-0.000916701	0.0189262
12313	-0.000992997	0.0197905
12529	-0.00103115	0.0193194
12745	-2.00076	-20.8921
12961	-2.00082	-8.48847
13177	-2.00087	-4.98377
13393	-2.00084	-3.67371
13609	-0.000916701	1.48097
13825	-0.000802256	0.881977
14041	-0.000935775	0.710722
14257	-0.000897627	0.585643
14473	-0.000992997	0.539707
14689	-0.000878553	0.474905
14905	-0.000897627	0.458859
15121	-0.000916701	0.412355
15337	-0.000897627	0.404607
15553	-0.000935775	0.366292
15769	-0.000859479	0.362126
15985	-0.000973923	0.329518
16201	1.49962	353.093
16417	1.49949	11.2963
16633	1.49957	8.84104
16849	1.49957	7.35307
17065	1.49947	6.05631
17281	1.49945	4.93004
17497	1.49955	3.93515
17713	1.49949	3.19463
17929	1.49936	2.67308
18145	1.49945	2.32468
18361	1.4994	2.0422
18577	1.49968	1.86796
18793	1.49951	1.75554
19009	1.49947	1.75631
19225	1.49949	1.61181
19441	1.4994	1.63329
19657	1.49947	1.48702
19873	-0.000859479	-0.302013
20089	-0.000859479	-0.0764532
20305	-0.000897627	-0.0387106
20521	-0.000878553	-0.0215457
20737	-0.000840404	-0.010925
20953	-0.00082133	-0.00231655
21169	-0.000859479	0.00404895
21385	-0.000916701	0.0078731
21601	-0.000973923	0.0109009
21817	-0.000859479	0.0124079
22033	-0.000935775	0.0136908
22249	-0.00103115	0.0166604
22465	-0.00101207	0.0204553
22681	-0.000897627	0.0186036
22897	-0.000916701	0.0215866
23113	-0.000916701	0.0214375
23329	-0.000802256	0.0230975
23545	-0.000973923	0.0221407
23761	-0.000935775	0.0242938
23977	-0.000840404	0.0229563
24193	-0.000935775	0.0259008
24409	-0.000897627	0.0247631
24625	-0.000897627	0.024989
24841	-0.000859479	0.0236082
25057	-0.000859479	0.0244532
25273	-0.00103115	0.0245565
25489	-0.000916701	0.0257688
25705	-0.00114559	0.0249186
25921	-0.000802256	0.0250232
26137	-0.00103115	0.0237974
26353	-0.000973923	0.0243172
26569	-0.000973923	0.0243641
26785	-0.000859479	0.0244227
27001	-0.000992997	0.0235568
27217	-0.000878553	0.0233248
27433	-0.000840404	0.0238059
27649	-0.000859479	0.0238536
27865	-0.00082133	0.0229387
28081	-0.000935775	0.0227994
28297	-0.000897627	0.0219636
28513	-0.00103115	0.0217994
28729	-0.000878553	0.0224376
28945	-2.00082	-14.3724
29161	-2.00091	-6.29412
29377	-2.00086	-3.97121
29593	-2.00082	-2.94752
29809	-0.000954849	1.14133
30025	-0.00101207	0.608347
30241	-0.000706886	0.445467
30457	-0.00103115	0.35828
30673	-0.000916701	0.302589
30889	-0.000878553	0.266269
31105	-0.000897627	0.240688
31321	-0.000859479	0.2281
31537	-0.000783182	0.216207
31753	-0.00101207	0.214871
31969	-0.000973923	0.205478
32185	-0.000840404	0.205366
32401	1.4996	247.729
32617	1.49951	7.92236
32833	1.49945	6.36952
33049	1.49949	5.21093
33265	1.49957	4.0614
33481	1.49943	2.88755
33697	1.49951	2.22708
33913	1.49943	1.89637
34129	1.49941	1.83797
34345	1.49953	1.73562
34561	1.49945	1.6749
34777	1.49953	1.59129
34993	1.49947	1.5269
35209	1.49936	1.46088
35425	1.4994	1.42359
35641	1.49949	1.36732
35857	1.49957	1.32415
36073	-0.000859479	-0.321526
36289	-0.000935775	-0.0756428
36505	-0.00106929	-0.0398704
36721	-0.000954849	-0.0242403
36937	-0.000935775	-0.0147691
37153	-0.00101207	-0.00851791
37369	-0.000897627	-0.00447921
37585	-0.000897627	-0.000791541
37801	-0.00110744	0.00284386
38017	-0.00112652	0.00507196
38233	-0.00082133	0.00621686
38449	-0.000783182	0.00840996
38665	-0.000840404	0.00958022
38881	-0.000916701	0.0103347
39097	-0.000840404	0.0116303
39313	-0.000973923	0.0133047
39529	-0.00103115	0.0129561
39745	-0.00082133	0.0143799
39961	-0.000954849	0.0141198
40177	-0.000935775	0.0152769
40393	-0.000916701	0.0149638
40609	-0.000916701	0.0160697
40825	-0.000859479	0.0159079
41041	-0.000897627	0.01691
41257	-0.000745034	0.0166696
41473	-0.000840404	0.0174933
41689	-0.000973923	0.0163363
41905	-0.000878553	0.0179758
42121	-0.000783182	0.0164771
42337	-0.000916701	0.0175066
42553	-0.000916701	0.0172537
42769	-0.000897627	0.0180413
42985	-0.000897627	0.0172981
43201	-0.000878553	0.0176518
43417	-0.000764108	0.0171999
43633	-0.000802256	0.0175482
43849	-0.000954849	0.0171321
44065	-0.000897627	0.0173719
44281	-0.000859479	0.0170089
44497	-0.000992997	0.0169324
44713	-0.000954849	0.0166776
44929	-0.000668738	0.0169668
45145	-2.00086	-9.55635
45361	-2.00076	-4.44383
45577	-2.00076	-2.97928
45793	-2.00076	-2.32783
46009	-0.00072596	0.988888
46225	-0.000840404	0.501217
46441	-0.000859479	0.368767
46657	-0.000859479	0.302991
46873	-0.000916701	0.25683
47089	-0.00082133	0.224473
47305	-0.000859479	0.197982
47521	-0.000897627	0.178315
47737	-0.000802256	0.162709
47953	-0.000897627	0.151281
48169	-0.00082133	0.14291
48385	-0.000954849	0.136642
48601	1.49947	184.311
48817	1.49943	6.1312
49033	1.49945	4.00676
49249	1.49953	2.62246
49465	1.49953	2.09301
49681	1.49941	1.90547
49897	1.49972	1.81414
50113	1.49957	1.61748
50329	1.49953	1.57156
50545	1.49941	1.45395
50761	1.49955	1.41562
50977	1.4996	1.34243
51193	1.49955	1.30255
51409	1.4994	1.25531
51625	1.49943	1.22697
51841	1.49972	1.16769
52057	1.49951	1.15976
52273	-0.000935775	-0.329069
52489	-0.000840404	-0.0691252
52705	-0.00072596	-0.032075
52921	-0.000916701	-0.0183736
53137	-0.00101207	-0.0107283
53353	-0.000992997	-0.00583858
53569	-0.00101207	-0.00253496
53785	-0.000840404	1.97432e-05
54001	-0.00082133	0.00210668
54217	-0.000897627	0.00366101
54433	-0.000840404	0.00437017
54649	-0.000840404	0.00572341
54865	-0.00101207	0.00660616
55081	-0.000935775	0.00755253
55297	-0.000897627	0.00814392
55513	-0.000783182	0.00839797
55729	-0.000878553	0.00935949
55945	-0.000878553	0.00933559
56161	-0.000878553	0.0102319
56377	-0.000897627	0.0101315
56593	-0.000973923	0.0101953
56809	-0.000935775	0.0105733
57025	-0.000859479	0.011037
57241	-0.00082133	0.011041
57457	-0.000802256	0.0117005
57673	-0.000954849	0.0114162
57889	-0.000783182	0.0116564
58105	-0.000897627	0.0116641
58321	-0.000916701	0.0118803
58537	-0.000954849	0.0114072
58753	-0.000745034	0.0123057
58969	-0.000916701	0.0118424
59185	-0.000954849	0.0125045
59401	-0.000935775	0.0118277
59617	-0.000973923	0.0126267
59833	-0.000802256	0.011947
60049	-0.000935775	0.0125308
60265	-0.00101207	0.0118751
60481	-0.000973923	0.012252
60697	-0.000859479	0.011468
60913	-0.000859479	0.0118716
61129	-0.000992997	0.0115494
61345	-2.00082	-6.77203
61561	-2.00086	-3.26515
61777	-2.00095	-2.30869
61993	-2.00097	-1.85787
62209	-0.000916701	0.909071
62425	-0.00106929	0.411206
62641	-0.000954849	0.305391
62857	-0.000916701	0.243272
63073	-0.000992997	0.206029
63289	-0.000973923	0.175595
63505	-0.000897627	0.154599
63721	-0.000935775	0.137179
63937	-0.000992997	0.124733
64153	-0.000897627	0.113635
64369	-0.000764108	0.105613
64585	-0.000954849	0.0983334
64800	-0.000878553	0.0931875

File: CA_268_045_minutes_C01.txt
time/s	Ewe/V	<I>/mA
1	1.49943	122.255
52	1.49943	20.4723
103	1.49951	14.9009
154	1.49953	12.0088
205	1.49936	10.9344
256	1.49945	10.3372
307	1.49968	9.88163
358	1.49943	9.74531
409	1.49949	9.52754
460	1.49951	9.33849
511	1.49957	9.22353
562	1.49951	9.01405
613	1.49953	8.69944
664	1.49941	8.39468
715	1.49945	8.13646
766	1.49947	7.88547
817	1.49955	7.61525
868	1.49968	7.34754
919	1.49945	7.04539
970	1.49951	6.68776
1021	1.49938	6.40956
1072	1.49959	6.17747
1123	1.49962	5.94306
1174	1.49959	5.73098
1225	1.49943	5.54708
1276	1.49962	5.34982
1327	1.49943	5.13647
1378	1.49957	5.01638
1429	1.49962	4.91603
1480	1.49928	4.77621
1531	1.49953	4.66933
1582	1.49949	4.56585
1633	1.49943	4.40209
1684	1.49947	4.24014
1735	1.49955	4.16413
1786	1.49951	4.07112
1837	1.49949	3.96114
1888	1.49959	3.86928
1939	1.49962	3.76713
1990	1.49964	3.61049
2041	1.49962	3.46916
2092	1.49961	3.40778
2143	1.49955	3.33976
2194	1.49949	3.27204
2245	1.49968	3.27646
2296	1.49947	3.20286
2347	1.49945	3.09512
2398	1.49957	3.0237
2449	1.49947	3.00386
2500	1.49947	2.96155
2551	1.49974	2.91801
2602	1.49957	2.88242
2653	1.49962	2.82112
2703.95	-0.00091589	-7.58647
2754.95	-0.000934964	-0.415051
2805.95	-0.000782372	-0.205535
2856.95	-0.000934964	-0.140414
2907.95	-0.000725149	-0.107832
2958.95	-0.000896816	-0.0882633
3009.95	-0.000839594	-0.0756663
3060.95	-0.000896816	-0.0670755
3111.95	-0.000801446	-0.0605301
3162.95	-0.000877742	-0.0555143
3213.95	-0.000877742	-0.0518832
3264.95	-0.000973113	-0.0492679
3315.95	-0.000954038	-0.0468043
3366.95	-0.00091589	-0.0449647
3417.95	-0.000934964	-0.0435276
3468.95	-0.000877742	-0.0419167
3519.95	-0.000934964	-0.0408207
3570.95	-0.000896816	-0.0397916
3621.95	-0.00103033	-0.0389479
3672.95	-0.000801446	-0.0378488
3723.95	-0.000782372	-0.0373338
3774.95	-0.00091589	-0.0365769
3825.95	-0.000896816	-0.0358078
3876.95	-0.000992187	-0.0352233
3927.95	-0.00091589	-0.034758
3978.95	-0.000992187	-0.0342291
4029.95	-0.000973113	-0.0334477
4080.95	-0.000973113	-0.0330881
4131.95	-0.000858668	-0.0325364
4182.95	-0.000973113	-0.0320465
4233.95	-0.000877742	-0.0315424
4284.95	-0.00082052	-0.0310314
4335.95	-0.000992187	-0.030458
4386.95	-0.000896816	-0.0299512
4437.95	-0.00104941	-0.0295656
4488.95	-0.000877742	-0.0292108
4539.95	-0.000801446	-0.0287236
4590.95	-0.000877742	-0.0283042
4641.95	-0.000858668	-0.0278451
4692.95	-0.000877742	-0.0274676
4743.95	-0.000877742	-0.0270963
4794.95	-0.000896816	-0.0268299
4845.95	-0.00082052	-0.0264135
4896.95	-0.000839594	-0.0260147
4947.95	-0.000934964	-0.0257333
4998.95	-0.000896816	-0.0252268
5049.95	-0.000934964	-0.024644
5100.95	-0.00101126	-0.0245288
5151.95	-0.000896816	-0.0243288
5202.95	-0.000801446	-0.0237231
5253.95	-0.00082052	-0.0234535
5304.95	-0.000839594	-0.0231234
5355.95	-0.00106848	-0.0227822
5406.95	-0.000992187	-0.0222909
5457.95	-0.000782372	-0.0222711
5508.95	-0.000954038	-0.0220036
5559.95	-0.00082052	-0.021455
5610.95	-0.00091589	-0.0211717
5661.95	-0.000858668	-0.0210301
5712.95	-0.00091589	-0.0204767
5763.95	-0.000801446	-0.019992
5814.95	-0.00082052	-0.0199786
5865.95	-0.00082052	-0.0197142
5916.95	-0.000839594	-0.0194789
5967.95	-0.000896816	-0.0192028
6018.95	-0.00106848	-0.0188989
6069.95	-0.000934964	-0.0184818
6120.95	-0.000992187	-0.018243
6171.95	-0.00082052	-0.0182066
6222.95	-0.000801446	-0.0179496
6273.95	-0.000839594	-0.0175343
6324.95	-0.000763297	-0.0173848
6375.95	-0.000934964	-0.0170852
6426.95	-0.000877742	-0.0167139
6477.95	-0.000896816	-0.0165891
6528.95	-0.000896816	-0.0164047
6579.95	-0.000934964	-0.0162332
6630.95	-0.000858668	-0.0160955
6681.95	-0.000973113	-0.0158907
6732.95	-0.000877742	-0.0155646
6783.95	-0.000934964	-0.0151035
6834.95	-0.00103033	-0.0149562
6885.95	-0.000763297	-0.0147366
6936.95	-0.000992187	-0.0144103
6987.95	-0.000973113	-0.0141192
7038.95	-0.000896816	-0.0139565
7089.95	-0.000934964	-0.013521
7140.95	-0.000858668	-0.0130077
7191.95	-0.000934964	-0.0130732
7242.95	-0.00082052	-0.0127432
7293.95	-0.00104941	-0.0124773
7344.95	-0.000992187	-0.0122491
7395.95	-0.000744223	-0.0119994
7446.95	-0.000896816	-0.0115215
7497.95	-0.000934964	-0.0113313
7548.95	-0.000973113	-0.0113706
7599.95	-0.000782372	-0.0111309
7650.95	-0.000992187	-0.0110476
7701.95	-0.000934964	-0.0108346
7752.95	-0.000839594	-0.0105825
7803.95	-0.000934964	-0.0101091
7854.95	-0.000877742	-0.0100614
7905.95	-0.000877742	-0.00998095
7956.95	-0.000896816	-0.00971834
8007.95	-0.000877742	-0.00960943
8058.95	-0.000973113	-0.00941837
8109.95	-0.000973113	-0.00910795
8160.95	-0.000954038	-0.00870554
8211.95	-0.000973113	-0.0087683
8262.95	-0.000858668	-0.0084301
8313.95	-0.000954038	-0.00808968
8364.95	-0.000801446	-0.0077378
8415.95	-0.00091589	-0.00767088
8466.95	-0.000877742	-0.0073865
8517.95	-0.00082052	-0.00729996
8568.95	-0.000896816	-0.00747454
8619.95	-0.00103033	-0.00717334
8670.95	-0.000992187	-0.00694274
8721.95	-0.000839594	-0.00675289
8772.95	-0.000992187	-0.00642698
8823.95	-0.00091589	-0.00591978
8874.95	-0.00091589	-0.00594346
8925.95	-0.00101126	-0.00597036
8976.95	-0.00101126	-0.00580528
9027.95	-0.000877742	-0.00549628
9078.95	-0.000973113	-0.00519522
9129.95	-0.00101126	-0.00468305
9180.95	-0.00091589	-0.00415357
9231.95	-0.000896816	-0.00435579
9282.95	-0.000896816	-0.00424256
9333.95	-0.000973113	-0.00410044
9384.95	-0.000992187	-0.00392431
9435.95	-0.00082052	-0.0038416
9486.95	-0.000839594	-0.00349963
9537.95	-0.000896816	-0.00323021
9588.95	-0.000992187	-0.00332068
9639.95	-0.000839594	-0.00319977
9690.95	-0.000896816	-0.00311523
9741.95	-0.000934964	-0.00297602
9792.95	-0.00104941	-0.00279456
9843.95	-0.000706075	-0.00232545
9894.95	-0.000992187	-0.00202702
9945.95	-0.00082052	-0.00208249
9996.95	-0.000782372	-0.00199093
10048	-0.00082052	-0.0017248
10099	-0.000763297	-0.00175685
10150	-0.00106848	-0.00166374
10201	-0.000744223	-0.00116478
10252	-0.000973113	-0.00125939
10303	-0.000973113	-0.00124118
10354	-0.000744223	-0.00109802
10405	-0.000934964	-0.00104818
10456	-0.00082052	-0.000968673
10507	-0.000954038	-0.00071022
10558	-0.000858668	-0.000325787
10609	-0.000934964	-0.000486481
10660	-0.000839594	-0.000474321
10711	-0.000839594	-0.000363432
10762	-0.000954038	-0.000217457
10813	-0.000839594	-0.000235623
10864	-0.00091589	-5.33412e-07
10915	-0.000839594	0.000182129
10966	-0.000992187	9.7805e-05
11017	-0.000839594	0.000175225
11068	-0.000858668	0.000418872
11119	-0.000877742	0.000502563
11170	-0.000877742	0.000687166
11221	-0.000877742	0.00116707
11272	-0.000992187	0.00132057
11323	-0.000954038	0.00142983
11374	-0.000954038	0.00159541
11425	-0.000954038	0.001719
11476	-0.000801446	0.00179746
11527	-0.000858668	0.0020045
11578	-0.000954038	0.00233852
11629	-0.00082052	0.00219809
11680	-0.000896816	0.00215385
11731	-2.00093	-42.2931
11782	-2.00097	-19.2356
11833	-2.00085	-12.4499
11884	-2.00085	-9.35992
11935	-2.00085	-7.57248
11986	-2.00084	-6.46309
12037	-2.00082	-5.66287
12088	-2.00093	-5.09466
12139	-2.00078	-4.66567
12190	-2.00103	-4.31002
12241	-2.00084	-4.05268
12292	-2.0007	-3.83679
12343	-2.00085	-3.6417
12394	-2.00074	-3.45943
12445	-2.00078	-3.30073
12496	-2.00093	-3.1573
12547	-2.00099	-3.08086
12598	-2.00097	-2.28233
12649	-0.000706075	1.53903
12700	-0.000858668	0.741823
12751	-0.00091589	0.534653
12802	-0.000763297	0.437158
12853	-0.000782372	0.380725
12904	-0.00091589	0.343068
12955	-0.000896816	0.316941
13006	-0.000973113	0.295505
13057	-0.00082052	0.277838
13108	-0.000725149	0.263808
13159	-0.00091589	0.25167
13210	-0.000782372	0.2408
13261	-0.000992187	0.231181
13312	-0.00103033	0.22265
13363	-0.000992187	0.213536
13414	-0.000973113	0.204555
13465	-0.00101126	0.196728
13516	-0.000763297	0.188979
13567	-0.000896816	0.182166
13618	-0.000896816	0.176537
13669	-0.00082052	0.171158
13720	-0.000973113	0.165348
13771	-0.000858668	0.160514
13822	-0.000877742	0.156351
13873	-0.000877742	0.151914
13924	-0.000973113	0.14818
13975	-0.000896816	0.145119
14026	-0.000839594	0.141905
14077	-0.00091589	0.138311
14128	-0.00082052	0.135707
14179	-0.000725149	0.133103
14230	-0.000801446	0.130431
14281	-0.00108756	0.127973
14332	-0.00091589	0.126728
14383	-0.00091589	0.124544
14434	-0.00104941	0.122199
14485	-0.000896816	0.120381
14536	-0.000934964	0.118437
14587	-0.00091589	0.11677
14638	-0.000858668	0.115599
14689	-0.000877742	0.114627
14740	-0.00091589	0.112553
14791	-0.000934964	0.111153
14842	-0.000954038	0.109729
14893	-0.000934964	0.108306
14944	-0.000744223	0.10722
14995	-0.00082052	0.106791
15046	-0.000877742	0.10566
15097	-0.000858668	0.104114
15148	-0.00110663	0.103016
15199	-0.000858668	0.102146
15250	-0.000877742	0.101051
15300	-0.000973113	0.100185