Folder: Nickel_Dithiolene_Research_Experimental_Data/Data_20_Experiment

Note: README.md
# Nickel_Dithiolene_Research_Experimental_Data
Init_Data
This is a data repository that support the findings in the manuscript "Electrochemically Modulated Separation of Olefin-Paraffin Gas Mixtures in Membrane Electrode Assemblies". All uploaded codes use Matlab software version 2022A or above. All codes can be run on operating system windows 10 or above on any PC with sufficient memory to run Matlab. Refer to the System Requirements Page for Matlab at https://www.mathworks.com/support/requirements/matlab-system-requirements.html for further information.

On matlab, run the script "Graph_Results_Summary_v01" to plot all relevant graphs that are shown in the main manuscript. Further details including Gas Chromatographs of all experimental recordings can be found in individual numbered data folder. To find the appropriate data folder, refer to the excel spreadsheet "Result_Summary" which contains tables of summary data. Each column is labeled by the data folder number to which it pertains to.

In each data folder, it contains all appropriate raw chromatograph data from the MIcro GC 990 as ASCII file in "Compiled_Data" folder. Matlab codes used to analyze the gas chromatographs and chronoamperometry data are also included in each numbered data folder. To output and analyze the raw chromatograph data, run the script "Micro_GC_990_Data_Spreadsheet_Summary_v01". Be sure to edit the path_address within the Matlab script to direct the code to analyze the raw files from the appropriate address in your computer (e.g. C:\Users\Default\Documents\Compiled_Data\). To output the graphs shown in the Supplementary Information, run the script MEA_Experimental_Result_v01. Raw Chronoamperometry data (as text file) from the Potentiostat is included in each numbered data folder.

File: CA_001_C01.txt
time/s	Ewe/V	<I>/mA
1	1.49929	413.721
193	1.49933	26.5975
385	1.49939	17.0136
577	1.49927	12.4516
769	1.49931	9.92312
961	1.49931	8.1274
1153	1.49916	6.77263
1345	1.4992	5.72158
1537	1.49937	4.88464
1729	1.49942	4.18305
1920.98	-0.000772977	0.366251
2112.98	-0.000849274	0.208479
2304.98	-0.000772977	0.149499
2496.98	-0.000792052	0.0920553
2688.98	-0.00111631	0.0747591
2880.98	-0.000906496	0.0758211
3072.98	-0.000906496	0.0504784
3264.98	-0.000868348	0.0488504
3456.98	-0.000811126	0.0504412
3648.98	-0.0008302	0.0346276
3840.98	-0.000792052	0.0424299
4032.98	-0.000963718	0.04211
4224.98	-0.000811126	0.0297116
4416.98	-0.000696681	0.0349561
4608.98	-0.000868348	0.0397453
4800.98	-0.000753903	0.028276
4992.98	-0.000887422	0.030011
5184.98	-0.0008302	0.033678
5376.98	-0.000887422	0.0286247
5568.98	-0.000887422	0.0289091
5760.98	-0.000772977	0.0316336
5952.98	-0.000792052	0.0283636
6144.98	-0.0008302	0.0257124
6336.98	-0.0008302	0.0251424
6528.98	-0.00100187	0.026232
6720.98	-0.000868348	0.027469
6912.98	-0.000753903	0.0283601
7104.98	-0.000734829	0.0253326
7296.98	-0.000906496	0.0236453
7488.98	-0.000772977	0.0264454
7680.98	-0.000811126	0.026185
7872.98	-0.000792052	0.0232581
8064.98	-0.000772977	0.0270545
8256.98	-0.000868348	0.0273602
8448.98	-0.000696681	0.0237621
8640.98	-0.000811126	0.0261169
8832.98	-0.000868348	0.0264245
9024.98	-0.000868348	0.0235282
9216.98	-0.000772977	0.0244584
9408.98	-0.000944644	0.0254722
9600.98	-0.000696681	0.0255498
9792.98	-0.000868348	0.0239666
9984.98	-0.0008302	0.0265694
10177	-0.000906496	0.0217289
10369	-0.000734829	0.0235634
10561	-0.000887422	0.0266966
10753	-0.0008302	0.0230967
10945	-3.00142	-336.502
11137	-3.00127	-360.731
11329	-3.00111	-362.065
11521	-3.00125	-356.676
11713	-0.000929376	20.3718
11905	-0.000853079	1.33532
12097	-0.000795857	0.883095
12289	-0.000986598	0.71515
12481	-0.000853079	0.620013
12673	-0.000853079	0.559318
12865	-0.000757709	0.520202
13057	-0.000814931	0.473985
13249	-0.000834005	0.442087
13441	-0.000872154	0.41112
13633	-0.000738635	0.393817
13825	-0.00104382	0.373511
14017	-0.000814931	0.34505
14209	-0.000834005	0.331786
14401	1.49935	214.125
14593	1.49946	11.8585
14785	1.49937	7.63843
14977	1.49923	6.39959
15169	1.49931	5.67283
15361	1.49929	5.05557
15553	1.49933	4.57686
15745	1.49933	4.15876
15937	1.49933	3.7259
16129	1.49918	3.48171
16321	-0.0008302	0.0739995
16513	-0.000696681	0.0941197
16705	-0.000887422	0.0840323
16897	-0.000772977	0.0737184
17089	-0.000906496	0.0675572
17281	-0.000963718	0.0630061
17473	-0.000944644	0.0573107
17665	-0.000734829	0.0529864
17857	-0.000849274	0.0517582
18049	-0.000811126	0.047841
18241	-0.000849274	0.0454668
18433	-0.000906496	0.0450757
18625	-0.000906496	0.0421162
18817	-0.000811126	0.0400039
19009	-0.000734829	0.0400603
19201	-0.00092557	0.0375571
19393	-0.000887422	0.0362044
19585	-0.000601311	0.0362319
19777	-0.000944644	0.0345492
19969	-0.000849274	0.0337411
20161	-0.000486866	0.033298
20353	-0.000982793	0.0320091
20545	-0.000906496	0.0311774
20737	-0.000944644	0.0312556
20929	-0.000811126	0.0301154
21121	-0.00092557	0.0292144
21313	-0.000696681	0.0291532
21505	-0.000811126	0.0281726
21697	-0.000944644	0.0269588
21889	-0.000658533	0.0273171
22081	-0.000982793	0.0268393
22273	-0.000620385	0.0260175
22465	-0.000792052	0.0256027
22657	-0.000753903	0.0254152
22849	-0.000868348	0.0246659
23041	-0.000544088	0.0243319
23233	-0.000944644	0.0247925
23425	-0.0008302	0.0239273
23617	-0.000811126	0.0231048
23809	-0.000868348	0.0234018
24001	-0.000944644	0.022372
24193	-0.0008302	0.0222352
24385	-0.000811126	0.0225216
24577	-0.000868348	0.0215392
24769	-0.000849274	0.0210693
24961	-0.000849274	0.0216811
25153	-0.00102094	0.0210637
25345	-3.00134	-272.438
25537	-3.0014	-289.051
25729	-3.0013	-292.215
25921	-3.00134	-290.965
26113	-0.000776783	19.4399
26305	-0.00112012	1.29223
26497	-0.000757709	0.771785
26689	-0.000834005	0.579982
26881	-0.000986598	0.483738
27073	-0.000853079	0.429215
27265	-0.000891228	0.391817
27457	-0.000643265	0.354278
27649	-0.000795857	0.321848
27841	-0.000643265	0.294715
28033	-0.000776783	0.268409
28225	-0.000853079	0.24531
28417	-0.000814931	0.225616
28609	-0.000872154	0.206613
28801	1.49939	165.99
28993	1.49937	8.38524
29185	1.49927	5.66966
29377	1.49918	4.48808
29569	1.49939	3.88147
29761	1.49914	3.88339
29953	1.4992	3.64415
30145	1.49921	3.4789
30337	1.49923	3.45251
30529	1.49929	3.34298
30721	-0.000792052	-0.0816614
30913	-0.000772977	0.0118427
31105	-0.000811126	0.0274264
31297	-0.000887422	0.0323589
31489	-0.000734829	0.0349078
31681	-0.000944644	0.0336934
31873	-0.000982793	0.0326374
32065	-0.000811126	0.0326421
32257	-0.000772977	0.0310059
32449	-0.000601311	0.0298417
32641	-0.000906496	0.0296574
32833	-0.000772977	0.0284067
33025	-0.0008302	0.0277346
33217	-0.00092557	0.0272307
33409	-0.000792052	0.0260972
33601	-0.000868348	0.0252351
33793	-0.000658533	0.0248896
33985	-0.000753903	0.0242731
34177	-0.000792052	0.0237228
34369	-0.000849274	0.0230643
34561	-0.000868348	0.0229066
34753	-0.0008302	0.0222878
34945	-0.000944644	0.0215607
35137	-0.00092557	0.0216879
35329	-0.000811126	0.0210358
35521	-0.000906496	0.0206306
35713	-0.000982793	0.0207611
35905	-0.000868348	0.0198786
36097	-0.000811126	0.0194946
36289	-0.000715755	0.0197133
36481	-0.000868348	0.0189528
36673	-0.000792052	0.0185032
36865	-0.000887422	0.0189621
37057	-0.000906496	0.0181492
37249	-0.000792052	0.0177521
37441	-0.0008302	0.017904
37633	-0.00092557	0.0174285
37825	-0.000868348	0.0171703
38017	-0.000753903	0.0174031
38209	-0.00100187	0.0168212
38401	-0.000982793	0.0164692
38593	-0.000772977	0.0165943
38785	-0.00105909	0.0161544
38977	-0.000792052	0.0159799
39169	-0.0008302	0.0159696
39361	-0.000849274	0.0156254
39553	-0.000772977	0.0154782
39745	-3.00146	-257.968
39937	-3.00136	-267.29
40129	-3.00138	-267.481
40321	-3.00132	-265.266
40513	-0.000986598	20.6525
40705	-0.000681412	1.21691
40897	-0.000814931	0.710334
41089	-0.000776783	0.514988
41281	-0.000681412	0.425765
41473	-0.00094845	0.362639
41665	-0.000738635	0.307411
41857	-0.00104382	0.259395
42049	-0.00100567	0.220498
42241	-0.000967524	0.190867
42433	-0.000872154	0.167485
42625	-0.000891228	0.149556
42817	-0.00094845	0.135756
43009	-0.00094845	0.123693
43201	1.49931	140.619
43393	1.49944	6.94234
43585	1.49931	4.47435
43777	1.49935	4.01037
43969	1.49939	3.90975
44161	1.49935	3.76579
44353	1.49929	3.58297
44545	1.49931	3.50746
44737	1.49933	3.37708
44929	1.4992	3.28505
45121	-0.000715755	-0.150606
45313	-0.000944644	-0.0186628
45505	-0.000849274	0.00545643
45697	-0.000963718	0.0141321
45889	-0.000868348	0.0172264
46081	-0.0008302	0.0184451
46273	-0.000753903	0.0194729
46465	-0.000753903	0.0194646
46657	-0.000887422	0.0191385
46849	-0.000753903	0.0190138
47041	-0.000849274	0.0191487
47233	-0.000715755	0.0185621
47425	-0.00100187	0.0181452
47617	-0.00092557	0.0182445
47809	-0.000868348	0.0177595
48001	-0.00100187	0.0171179
48193	-0.000982793	0.017382
48385	-0.000811126	0.0167971
48577	-0.000906496	0.0163442
48769	-0.000849274	0.0164895
48961	-0.000753903	0.015898
49153	-0.000753903	0.0154548
49345	-0.000772977	0.0156758
49537	-0.000906496	0.0153707
49729	-0.000982793	0.0147999
49921	-0.0008302	0.0150216
50113	-0.000715755	0.0144284
50305	-0.000734829	0.0141911
50497	-0.00100187	0.014315
50689	-0.000868348	0.013769
50881	-0.000982793	0.0136438
51073	-0.000944644	0.0136735
51265	-0.000772977	0.0134029
51457	-0.000753903	0.0131087
51649	-0.000792052	0.0131041
51841	-0.000982793	0.0128496
52033	-0.000887422	0.0127001
52225	-0.0008302	0.0125504
52417	-0.000734829	0.0124614
52609	-0.00100187	0.0124092
52801	-0.000963718	0.0121219
52993	-0.000906496	0.0121382
53185	-0.000715755	0.0118297
53377	-0.000792052	0.0117906
53569	-0.0008302	0.0117771
53761	-0.000906496	0.0115744
53953	-0.0008302	0.0111981
54145	-3.00121	-234.905
54337	-3.00125	-241.922
54529	-3.00148	-240.73
54721	-3.00146	-239.958
54913	-0.000967524	21.152
55105	-0.000757709	1.3219
55297	-0.000719561	0.668802
55489	-0.000853079	0.454169
55681	-0.000814931	0.328537
55873	-0.000776783	0.252438
56065	-0.000757709	0.202416
56257	-0.000929376	0.169485
56449	-0.00094845	0.146089
56641	-0.000929376	0.12784
56833	-0.000700487	0.11387
57025	-0.000738635	0.102971
57217	-0.00094845	0.0936007
57409	-0.000795857	0.0858034
57600	-0.000929376	0.0795985