Folder: Nickel_Dithiolene_Research_Experimental_Data/Data_02_Experiment

Note: README.md
# Nickel_Dithiolene_Research_Experimental_Data
Init_Data
This is a data repository that support the findings in the manuscript "Electrochemically Modulated Separation of Olefin-Paraffin Gas Mixtures in Membrane Electrode Assemblies". All uploaded codes use Matlab software version 2022A or above. All codes can be run on operating system windows 10 or above on any PC with sufficient memory to run Matlab. Refer to the System Requirements Page for Matlab at https://www.mathworks.com/support/requirements/matlab-system-requirements.html for further information.

On matlab, run the script "Graph_Results_Summary_v01" to plot all relevant graphs that are shown in the main manuscript. Further details including Gas Chromatographs of all experimental recordings can be found in individual numbered data folder. To find the appropriate data folder, refer to the excel spreadsheet "Result_Summary" which contains tables of summary data. Each column is labeled by the data folder number to which it pertains to.

In each data folder, it contains all appropriate raw chromatograph data from the MIcro GC 990 as ASCII file in "Compiled_Data" folder. Matlab codes used to analyze the gas chromatographs and chronoamperometry data are also included in each numbered data folder. To output and analyze the raw chromatograph data, run the script "Micro_GC_990_Data_Spreadsheet_Summary_v01". Be sure to edit the path_address within the Matlab script to direct the code to analyze the raw files from the appropriate address in your computer (e.g. C:\Users\Default\Documents\Compiled_Data\). To output the graphs shown in the Supplementary Information, run the script MEA_Experimental_Result_v01. Raw Chronoamperometry data (as text file) from the Potentiostat is included in each numbered data folder.

File: CA_001_C01.txt
time/s	Ewe/V	<I>/mA
1	1.49965	0.367092
193	1.49952	5.46327
385	1.49948	4.59478
577	1.49929	4.09454
769	1.49935	3.72456
961	1.49927	3.39168
1153	1.49927	3.251
1345	1.49937	3.09406
1537	1.49927	2.92224
1729	1.49939	2.95154
1920.95	-0.00100249	-0.00391102
2112.98	-0.00109786	0.0641413
2304.98	-0.00102156	0.0752554
2496.98	-0.00113601	0.0793305
2688.98	-0.00105971	0.085535
2880.98	-0.00105971	0.0865378
3072.98	-0.00111693	0.084047
3264.98	-0.00111693	0.0801789
3456.98	-0.00113601	0.0780973
3648.98	-0.00109786	0.0760032
3840.98	-0.00105971	0.0731105
4032.98	-0.00113601	0.0706221
4224.98	-0.00104063	0.0685581
4416.98	-0.00102156	0.0665675
4608.98	-0.000983412	0.0649133
4800.98	-0.000983412	0.0625045
4992.98	-0.00102156	0.0610021
5184.98	-0.00105971	0.0599473
5376.98	-0.00104063	0.0580195
5568.98	-0.00100249	0.0562708
5760.98	-0.00107878	0.0556866
5952.98	-0.00107878	0.0539027
6144.98	-0.000868968	0.0526036
6336.98	-0.00113601	0.0521476
6528.98	-0.00123138	0.0501035
6720.98	-0.00107878	0.0490416
6912.98	-0.00111693	0.0489289
7104.98	-0.00105971	0.0471624
7296.98	-0.00111693	0.0461346
7488.98	-0.00100249	0.0460674
7680.98	-0.00105971	0.0445572
7872.98	-0.00102156	0.0437447
8064.98	-0.00117415	0.043561
8256.98	-0.00107878	0.042431
8448.98	-0.00102156	0.0416268
8640.98	-0.00107878	0.0413133
8832.98	-0.000983412	0.0405163
9024.98	-0.00107878	0.0398874
9216.98	-0.00109786	0.039305
9408.98	-0.00119323	0.0387063
9600.98	-0.00100249	0.0380617
9792.98	-0.00107878	0.0378348
9984.98	-0.00113601	0.0372944
10177	-0.000945264	0.0366914
10369	-0.00105971	0.036312
10561	-0.00107878	0.0359992
10753	-0.00104063	0.0355629
10945	-2.0009	-11.5341
11137	-2.00098	-7.76597
11329	-2.00094	-6.92893
11521	-2.00088	-6.94893
11713	-0.00107878	12.8033
11905	-0.00100249	1.01817
12097	-0.00115508	0.594449
12289	-0.00111693	0.41424
12481	-0.00113601	0.311976
12673	-0.00104063	0.250293
12865	-0.00119323	0.208553
13057	-0.00111693	0.176828
13249	-0.00113601	0.154228
13441	-0.00109786	0.137437
13633	-0.00104063	0.122898
13825	-0.00104063	0.111631
14017	-0.00109786	0.103033
14209	-0.00100249	0.0937763
14401	1.49929	151.501
14593	1.49919	6.40389
14785	1.49918	4.17287
14977	1.49939	3.54038
15169	1.49919	3.25629
15361	1.49927	3.35387
15553	1.49914	3.24567
15745	1.49918	3.07915
15937	1.49939	3.28697
16129	1.49916	3.15767
16321	-0.000907116	-0.311989
16513	-0.00105971	-0.0611748
16705	-0.00117415	-0.0128827
16897	-0.00107878	0.00449951
17089	-0.000945264	0.014249
17281	-0.00104063	0.0176122
17473	-0.00117415	0.0192061
17665	-0.00115508	0.0213383
17857	-0.00109786	0.0210391
18049	-0.00111693	0.020735
18241	-0.00115508	0.0219007
18433	-0.00107878	0.0211917
18625	-0.00119323	0.0206847
18817	-0.000964338	0.0213093
19009	-0.00113601	0.0207511
19201	-0.00092619	0.0195809
19393	-0.000945264	0.0204004
19585	-0.00100249	0.0190918
19777	-0.00107878	0.0190431
19969	-0.00115508	0.0195699
20161	-0.00107878	0.0180778
20353	-0.000983412	0.0177907
20545	-0.00111693	0.0181659
20737	-0.00109786	0.0175268
20929	-0.00111693	0.017454
21121	-0.00115508	0.0170079
21313	-0.000983412	0.0161925
21505	-0.00115508	0.0163841
21697	-0.0012123	0.0160085
21889	-0.00111693	0.0159561
22081	-0.00107878	0.0158095
22273	-0.00105971	0.0150481
22465	-0.00100249	0.0152391
22657	-0.00123138	0.0147162
22849	-0.00109786	0.0146702
23041	-0.00100249	0.0148562
23233	-0.00102156	0.0144422
23425	-0.00107878	0.0141822
23617	-0.000983412	0.0143289
23809	-0.00109786	0.0138714
24001	-0.00107878	0.0137574
24193	-0.00111693	0.0135928
24385	-0.00100249	0.013349
24577	-0.00107878	0.0134117
24769	-0.00119323	0.0133935
24961	-0.00105971	0.0130331
25153	-0.00109786	0.0130374
25345	-2.00096	-9.42987
25537	-2.00083	-6.37819
25729	-2.00107	-5.60335
25921	-2.00096	-5.42217
26113	-0.00109786	12.564
26305	-0.000983412	0.646684
26497	-0.00104063	0.392382
26689	-0.00109786	0.286929
26881	-0.00126952	0.228732
27073	-0.00100249	0.19132
27265	-0.00115508	0.162639
27457	-0.00113601	0.141494
27649	-0.00119323	0.126475
27841	-0.000964338	0.112967
28033	-0.00111693	0.102345
28225	-0.00111693	0.0937621
28417	-0.00107878	0.0860369
28609	-0.00111693	0.0793277
28801	1.49904	145.008
28993	1.49931	4.61001
29185	1.4994	3.69069
29377	1.4995	3.53298
29569	1.49937	3.65402
29761	1.49925	3.60847
29953	1.49923	3.33232
30145	1.49944	3.46648
30337	1.49929	3.32639
30529	1.49931	3.18437
30721	-0.00107878	-0.356126
30913	-0.00107878	-0.0938636
31105	-0.00107878	-0.0423122
31297	-0.000983412	-0.0210675
31489	-0.00104063	-0.0111049
31681	-0.00109786	-0.00524357
31873	-0.00113601	-0.000550195
32065	-0.00104063	0.00151883
32257	-0.00117415	0.00332707
32449	-0.00123138	0.00500745
32641	-0.00104063	0.00556948
32833	-0.000964338	0.00624382
33025	-0.000964338	0.00729248
33217	-0.00107878	0.00735913
33409	-0.000849894	0.00763461
33601	-0.00100249	0.00784087
33793	-0.00092619	0.00776366
33985	-0.000945264	0.00800829
34177	-0.00126952	0.00837773
34369	-0.000907116	0.00807342
34561	-0.000983412	0.00828239
34753	-0.000964338	0.00803784
34945	-0.00104063	0.00822417
35137	-0.00113601	0.00812395
35329	-0.00113601	0.00812674
35521	-0.00109786	0.00835758
35713	-0.00104063	0.00790663
35905	-0.00100249	0.00784985
36097	-0.00102156	0.00805093
36289	-0.00102156	0.00783327
36481	-0.00092619	0.00778366
36673	-0.00119323	0.00802469
36865	-0.00109786	0.00780899
37057	-0.00107878	0.00780163
37249	-0.00102156	0.0077934
37441	-0.00111693	0.0075834
37633	-0.000945264	0.00739426
37825	-0.00111693	0.007616
38017	-0.000964338	0.00733963
38209	-0.00105971	0.00722559
38401	-0.00113601	0.007486
38593	-0.000907116	0.00718132
38785	-0.000964338	0.00702109
38977	-0.00104063	0.00719073
39169	-0.00092619	0.0070186
39361	-0.00107878	0.00693109
39553	-0.00105971	0.00711727
39745	-2.00086	-6.807
39937	-2.00086	-4.93389
40129	-2.00086	-4.77825
40321	-2.00073	-4.85413
40513	-0.000983412	12.3187
40705	-0.000907116	0.514078
40897	-0.00100249	0.304967
41089	-0.00105971	0.22684
41281	-0.00100249	0.183656
41473	-0.00107878	0.154068
41665	-0.000964338	0.132728
41857	-0.00111693	0.117208
42049	-0.00104063	0.104715
42241	-0.00105971	0.0942463
42433	-0.000983412	0.0860603
42625	-0.00100249	0.0792955
42817	-0.000983412	0.07309
43009	-0.00105971	0.0679392
43201	1.49919	148.277
43393	1.49929	3.98152
43585	1.49929	3.51759
43777	1.4994	3.59531
43969	1.49933	3.54297
44161	1.49935	3.3736
44353	1.49929	3.32135
44545	1.49939	3.25
44737	1.49935	3.11386
44929	1.49939	3.06512
45121	-0.00107878	-0.344135
45313	-0.00105971	-0.091626
45505	-0.00100249	-0.0430315
45697	-0.00102156	-0.0239378
45889	-0.00100249	-0.0142976
46081	-0.00111693	-0.00832908
46273	-0.00092619	-0.00449351
46465	-0.00104063	-0.00205791
46657	-0.00113601	-0.000122459
46849	-0.00115508	0.00114615
47041	-0.000983412	0.00213292
47233	-0.00107878	0.0028162
47425	-0.00102156	0.00374303
47617	-0.000983412	0.00395336
47809	-0.000868968	0.00410649
48001	-0.00109786	0.00474751
48193	-0.000983412	0.00488069
48385	-0.00102156	0.00492211
48577	-0.000773597	0.00530912
48769	-0.00119323	0.00528455
48961	-0.00102156	0.00549517
49153	-0.000983412	0.00576081
49345	-0.00109786	0.00560946
49537	-0.00092619	0.00571752
49729	-0.00100249	0.00589919
49921	-0.00115508	0.00570683
50113	-0.000945264	0.00569352
50305	-0.00102156	0.0058896
50497	-0.000888042	0.00597072
50689	-0.00092619	0.00570337
50881	-0.000983412	0.00586882
51073	-0.000868968	0.00580406
51265	-0.000983412	0.00581729
51457	-0.000907116	0.0057537
51649	-0.00115508	0.0058444
51841	-0.00092619	0.00562551
52033	-0.00102156	0.00598581
52225	-0.000964338	0.0056087
52417	-0.00102156	0.00575464
52609	-0.00109786	0.00563251
52801	-0.00102156	0.0057456
52993	-0.00104063	0.00569914
53185	-0.000792671	0.00563941
53377	-0.00113601	0.00556916
53569	-0.00092619	0.00560481
53761	-0.00100249	0.00560281
53953	-0.00100249	0.0056346
54145	-2.00088	-5.98163
54337	-2.00085	-4.96473
54529	-2.00092	-5.15028
54721	-2.00094	-5.38377
54913	-0.00104063	12.666
55105	-0.00109786	0.465077
55297	-0.00104063	0.270175
55489	-0.00102156	0.20118
55681	-0.000849894	0.163683
55873	-0.00104063	0.138029
56065	-0.00104063	0.119998
56257	-0.00117415	0.106743
56449	-0.00102156	0.0955416
56641	-0.000964338	0.0866012
56833	-0.00100249	0.0798915
57025	-0.000964338	0.0732794
57217	-0.000983412	0.067976
57409	-0.00104063	0.0637114
57600	-0.000964338	0.0592877