Folder: Nickel_Dithiolene_Research_Experimental_Data/Data_04_Experiment

Note: README.md
# Nickel_Dithiolene_Research_Experimental_Data
Init_Data
This is a data repository that support the findings in the manuscript "Electrochemically Modulated Separation of Olefin-Paraffin Gas Mixtures in Membrane Electrode Assemblies". All uploaded codes use Matlab software version 2022A or above. All codes can be run on operating system windows 10 or above on any PC with sufficient memory to run Matlab. Refer to the System Requirements Page for Matlab at https://www.mathworks.com/support/requirements/matlab-system-requirements.html for further information.

On matlab, run the script "Graph_Results_Summary_v01" to plot all relevant graphs that are shown in the main manuscript. Further details including Gas Chromatographs of all experimental recordings can be found in individual numbered data folder. To find the appropriate data folder, refer to the excel spreadsheet "Result_Summary" which contains tables of summary data. Each column is labeled by the data folder number to which it pertains to.

In each data folder, it contains all appropriate raw chromatograph data from the MIcro GC 990 as ASCII file in "Compiled_Data" folder. Matlab codes used to analyze the gas chromatographs and chronoamperometry data are also included in each numbered data folder. To output and analyze the raw chromatograph data, run the script "Micro_GC_990_Data_Spreadsheet_Summary_v01". Be sure to edit the path_address within the Matlab script to direct the code to analyze the raw files from the appropriate address in your computer (e.g. C:\Users\Default\Documents\Compiled_Data\). To output the graphs shown in the Supplementary Information, run the script MEA_Experimental_Result_v01. Raw Chronoamperometry data (as text file) from the Potentiostat is included in each numbered data folder.

File: CA_001_C01.txt
time/s	Ewe/V	<I>/mA
1	1.49938	170.043
193	1.4993	9.03459
385	1.49949	7.7509
577	1.4993	7.23621
769	1.49926	6.7245
961	1.4993	6.2386
1153	1.4992	6.15937
1345	1.49941	5.78462
1537	1.49938	5.36858
1729	1.49924	5.47018
1920.95	-0.000820663	-0.0153439
2112.97	-0.000916033	0.0636898
2304.97	-0.000916033	0.0724178
2496.97	-0.0010114	0.0734445
2688.97	-0.0010114	0.0734942
2880.97	-0.000763441	0.0734266
3072.97	-0.000801589	0.0730544
3264.97	-0.000916033	0.0730555
3456.97	-0.000896959	0.0727858
3648.97	-0.000877885	0.0719965
3840.97	-0.000820663	0.0715085
4032.97	-0.000935107	0.0710724
4224.97	-0.000877885	0.0694838
4416.97	-0.000954182	0.0683278
4608.97	-0.000801589	0.067539
4800.97	-0.000896959	0.0655256
4992.97	-0.000935107	0.0642572
5184.97	-0.00099233	0.0632786
5376.97	-0.000973256	0.0614909
5568.97	-0.00099233	0.0602251
5760.97	-0.000973256	0.0592855
5952.97	-0.000916033	0.0577633
6144.97	-0.000839737	0.0565835
6336.97	-0.0010114	0.0556855
6528.97	-0.000935107	0.0544674
6720.97	-0.000801589	0.0535497
6912.97	-0.000954182	0.0528091
7104.97	-0.000820663	0.0517385
7296.97	-0.000935107	0.0508793
7488.97	-0.000858811	0.0503043
7680.97	-0.000858811	0.0493182
7872.97	-0.000896959	0.0485562
8064.97	-0.000916033	0.0479615
8256.97	-0.000954182	0.0472491
8448.97	-0.000896959	0.0464725
8640.97	-0.000820663	0.0459995
8832.97	-0.000801589	0.0454852
9024.97	-0.000916033	0.0447904
9216.97	-0.000954182	0.0443443
9408.97	-0.000896959	0.0438647
9600.97	-0.000820663	0.0431607
9792.97	-0.000935107	0.0429632
9984.97	-0.000839737	0.0425604
10177	-0.000801589	0.0418668
10369	-0.000916033	0.0415799
10561	-0.000858811	0.0411964
10753	-0.000782515	0.0407603
10945	-2.00078	-13.1607
11137	-2.00068	-8.3792
11329	-2.00072	-8.18766
11521	-2.00061	-8.62525
11713	-0.000973256	14.2478
11905	-0.000858811	1.90992
12097	-0.000839737	1.42313
12289	-0.000954182	0.97729
12481	-0.000782515	0.689886
12673	-0.0010114	0.56623
12865	-0.000954182	0.479796
13057	-0.000858811	0.409521
13249	-0.000877885	0.353787
13441	-0.000916033	0.310714
13633	-0.000916033	0.272871
13825	-0.00099233	0.243026
14017	-0.000916033	0.218071
14209	-0.000839737	0.196429
14401	1.49926	257.637
14593	1.49938	14.5702
14785	1.49932	7.71549
14977	1.49932	5.15723
15169	1.49947	4.03067
15361	1.49934	3.4959
15553	1.49949	3.15094
15745	1.49943	2.8653
15937	1.4993	2.63246
16129	1.49945	2.46648
16321	-0.0010114	-0.0551242
16513	-0.000877885	0.0436271
16705	-0.000820663	0.050539
16897	-0.000877885	0.0517898
17089	-0.000858811	0.0512024
17281	-0.000801589	0.049951
17473	-0.000858811	0.0491601
17665	-0.000954182	0.0481955
17857	-0.000916033	0.0465361
18049	-0.000839737	0.0456083
18241	-0.000858811	0.0448903
18433	-0.0010114	0.0436005
18625	-0.00106863	0.0424851
18817	-0.000858811	0.0419355
19009	-0.000916033	0.0406583
19201	-0.000916033	0.040005
19393	-0.000954182	0.0396781
19585	-0.00104955	0.0384442
19777	-0.000877885	0.0379669
19969	-0.000935107	0.037925
20161	-0.000858811	0.0367273
20353	-0.000896959	0.036117
20545	-0.000935107	0.0358089
20737	-0.000782515	0.0351038
20929	-0.000858811	0.0347064
21121	-0.000935107	0.0343684
21313	-0.000916033	0.0338786
21505	-0.00099233	0.0333434
21697	-0.00099233	0.0329589
21889	-0.000820663	0.0324688
22081	-0.00103048	0.0318996
22273	-0.000973256	0.0317963
22465	-0.000839737	0.0314412
22657	-0.000820663	0.0309539
22849	-0.000858811	0.0307395
23041	-0.000935107	0.030464
23233	-0.000839737	0.0300932
23425	-0.00103048	0.02979
23617	-0.000877885	0.0295587
23809	-0.000839737	0.0290361
24001	-0.0010114	0.0288342
24193	-0.000896959	0.0286892
24385	-0.000839737	0.0283161
24577	-0.000877885	0.0281222
24769	-0.000858811	0.0280651
24961	-0.000839737	0.0274998
25153	-0.000954182	0.0273634
25345	-2.00059	-12.1328
25537	-2.00076	-6.65903
25729	-2.00074	-5.78225
25921	-2.00068	-5.6977
26113	-0.000858811	13.819
26305	-0.00104955	1.03247
26497	-0.000839737	0.717736
26689	-0.000896959	0.598206
26881	-0.000877885	0.497418
27073	-0.000801589	0.391962
27265	-0.000916033	0.325074
27457	-0.000877885	0.289191
27649	-0.000935107	0.263794
27841	-0.000916033	0.242437
28033	-0.000896959	0.223367
28225	-0.000801589	0.207184
28417	-0.0010114	0.192583
28609	-0.0010114	0.178891
28801	1.49922	190.017
28993	1.49943	8.902
29185	1.49945	5.18437
29377	1.49943	3.6249
29569	1.49934	2.91708
29761	1.49945	2.51903
29953	1.49936	2.26613
30145	1.49922	2.07182
30337	1.49947	1.95471
30529	1.49938	1.86628
30721	-0.000916033	-0.0146598
30913	-0.000877885	0.0630026
31105	-0.00103048	0.0543738
31297	-0.000896959	0.0492351
31489	-0.00099233	0.0450932
31681	-0.000877885	0.0421434
31873	-0.000839737	0.0403864
32065	-0.000877885	0.0382807
32257	-0.000935107	0.036567
32449	-0.000820663	0.035573
32641	-0.000896959	0.034342
32833	-0.000839737	0.032988
33025	-0.000839737	0.0319126
33217	-0.000877885	0.0310985
33409	-0.00103048	0.030286
33601	-0.000935107	0.0295616
33793	-0.000763441	0.0288796
33985	-0.000896959	0.0279777
34177	-0.000916033	0.0275181
34369	-0.000763441	0.0271336
34561	-0.000839737	0.0262339
34753	-0.00106863	0.025865
34945	-0.000839737	0.0254735
35137	-0.000954182	0.0247251
35329	-0.000706218	0.024369
35521	-0.000725292	0.0239058
35713	-0.000935107	0.023498
35905	-0.000839737	0.023206
36097	-0.000839737	0.022993
36289	-0.00099233	0.0224149
36481	-0.000858811	0.0220379
36673	-0.000916033	0.0219389
36865	-0.000820663	0.0214062
37057	-0.000954182	0.0211008
37249	-0.000896959	0.0208262
37441	-0.000973256	0.0206515
37633	-0.000896959	0.0204302
37825	-0.00104955	0.020239
38017	-0.00099233	0.0198778
38209	-0.000954182	0.0196044
38401	-0.000839737	0.0194187
38593	-0.000954182	0.019125
38785	-0.0010877	0.0189383
38977	-0.000858811	0.0188625
39169	-0.000763441	0.0186252
39361	-0.000782515	0.0183315
39553	-0.000877885	0.0182089
39745	-2.0007	-8.52547
39937	-2.00078	-5.23079
40129	-2.00072	-4.52705
40321	-2.00063	-4.28714
40513	-0.000839737	13.5932
40705	-0.000896959	0.76492
40897	-0.000782515	0.487124
41089	-0.000896959	0.378255
41281	-0.000858811	0.299654
41473	-0.000839737	0.239672
41665	-0.000935107	0.201951
41857	-0.000839737	0.17783
42049	-0.000839737	0.160385
42241	-0.000839737	0.145386
42433	-0.000801589	0.133771
42625	-0.000839737	0.124199
42817	-0.0010114	0.114881
43009	-0.000801589	0.107302
43201	1.49932	129.753
43393	1.49941	6.06711
43585	1.49934	3.64816
43777	1.49941	2.75116
43969	1.49919	2.32897
44161	1.49943	2.07175
44353	1.49947	1.9259
44545	1.4993	1.84424
44737	1.49936	1.78049
44929	1.49938	1.72922
45121	-0.000877885	-0.0783398
45313	-0.000896959	0.029537
45505	-0.000782515	0.0326561
45697	-0.000782515	0.0314366
45889	-0.000858811	0.0298539
46081	-0.000877885	0.0288324
46273	-0.000858811	0.0277364
46465	-0.000877885	0.026526
46657	-0.000896959	0.0256855
46849	-0.0010114	0.0250881
47041	-0.000896959	0.0241493
47233	-0.000725292	0.0234248
47425	-0.000858811	0.022976
47617	-0.000858811	0.0221615
47809	-0.000896959	0.0215711
48001	-0.000858811	0.0213421
48193	-0.000877885	0.0206306
48385	-0.00099233	0.0201769
48577	-0.000782515	0.0200518
48769	-0.000916033	0.0193175
48961	-0.000801589	0.0189436
49153	-0.000706218	0.0188764
49345	-0.000954182	0.0183151
49537	-0.000877885	0.0180077
49729	-0.000858811	0.0178486
49921	-0.000877885	0.0174922
50113	-0.000877885	0.0172125
50305	-0.000820663	0.0170048
50497	-0.000954182	0.0166512
50689	-0.000858811	0.016522
50881	-0.000877885	0.0163128
51073	-0.000896959	0.0160014
51265	-0.000839737	0.0157816
51457	-0.000954182	0.0156358
51649	-0.000877885	0.0153584
51841	-0.000839737	0.0151681
52033	-0.000877885	0.0150898
52225	-0.000954182	0.0148719
52417	-0.000839737	0.0147342
52609	-0.000839737	0.0146394
52801	-0.000820663	0.0145489
52993	-0.000877885	0.0142954
53185	-0.000896959	0.0141174
53377	-0.000858811	0.014115
53569	-0.000839737	0.0139317
53761	-0.000858811	0.0137845
53953	-0.000916033	0.0138283
54145	-2.00064	-6.80424
54337	-2.00066	-4.57888
54529	-2.00078	-4.10347
54721	-2.00076	-3.94814
54913	-0.000896959	12.8953
55105	-0.000858811	0.621279
55297	-0.000877885	0.350561
55489	-0.000896959	0.246296
55681	-0.000916033	0.191944
55873	-0.00066807	0.158818
56065	-0.000973256	0.136921
56257	-0.000896959	0.121352
56449	-0.000954182	0.108958
56641	-0.000916033	0.0990996
56833	-0.000916033	0.0913904
57025	-0.000782515	0.0844308
57217	-0.000916033	0.0784943
57409	-0.000877885	0.0734996
57600	-0.0010114	0.0688381