Folder: Nickel_Dithiolene_Research_Experimental_Data/Data_19_Experiment(05)

Note: README.md
# Nickel_Dithiolene_Research_Experimental_Data
Init_Data
This is a data repository that support the findings in the manuscript "Electrochemically Modulated Separation of Olefin-Paraffin Gas Mixtures in Membrane Electrode Assemblies". All uploaded codes use Matlab software version 2022A or above. All codes can be run on operating system windows 10 or above on any PC with sufficient memory to run Matlab. Refer to the System Requirements Page for Matlab at https://www.mathworks.com/support/requirements/matlab-system-requirements.html for further information.

On matlab, run the script "Graph_Results_Summary_v01" to plot all relevant graphs that are shown in the main manuscript. Further details including Gas Chromatographs of all experimental recordings can be found in individual numbered data folder. To find the appropriate data folder, refer to the excel spreadsheet "Result_Summary" which contains tables of summary data. Each column is labeled by the data folder number to which it pertains to.

In each data folder, it contains all appropriate raw chromatograph data from the MIcro GC 990 as ASCII file in "Compiled_Data" folder. Matlab codes used to analyze the gas chromatographs and chronoamperometry data are also included in each numbered data folder. To output and analyze the raw chromatograph data, run the script "Micro_GC_990_Data_Spreadsheet_Summary_v01". Be sure to edit the path_address within the Matlab script to direct the code to analyze the raw files from the appropriate address in your computer (e.g. C:\Users\Default\Documents\Compiled_Data\). To output the graphs shown in the Supplementary Information, run the script MEA_Experimental_Result_v01. Raw Chronoamperometry data (as text file) from the Potentiostat is included in each numbered data folder.

File: CA_001_C01.txt
time/s	Ewe/V	<I>/mA
1	1.4994	87.0838
193	1.49937	5.14956
385	1.49925	5.44328
577	1.49935	5.96825
769	1.49942	6.44005
961	1.49921	6.99957
1153	1.49916	7.57426
1345	1.49933	8.24246
1537	1.49935	8.89768
1729	1.49929	9.43421
1920.95	-0.00105971	0.905285
2112.95	-0.000945264	0.573788
2304.95	-0.000964338	0.26511
2496.95	-0.00100249	0.175373
2688.95	-0.00104063	0.133838
2880.95	-0.00107878	0.115967
3072.95	-0.00100249	0.105941
3264.95	-0.00100249	0.0982916
3456.95	-0.000945264	0.0943172
3648.95	-0.00117415	0.0912856
3840.95	-0.00107878	0.0876315
4032.95	-0.000868968	0.0855638
4224.95	-0.00100249	0.0839748
4416.95	-0.00107878	0.0802436
4608.95	-0.00105971	0.0786011
4800.95	-0.00113601	0.0772542
4992.95	-0.000964338	0.0740223
5184.95	-0.00117415	0.0725954
5376.95	-0.000983412	0.0704097
5568.95	-0.000983412	0.0671546
5760.95	-0.00100249	0.0655215
5952.95	-0.000945264	0.064169
6144.95	-0.00107878	0.0608831
6336.95	-0.000983412	0.0593405
6528.95	-0.000983412	0.0581521
6720.95	-0.000907116	0.0555401
6912.95	-0.00104063	0.0543203
7104.95	-0.00105971	0.0526567
7296.95	-0.00104063	0.0509256
7488.95	-0.000907116	0.0496574
7680.95	-0.000983412	0.0486646
7872.95	-0.00102156	0.0470338
8064.95	-0.00111693	0.0454106
8256.95	-0.00092619	0.0444767
8448.95	-0.000983412	0.0436095
8640.95	-0.00109786	0.0421083
8832.95	-0.000849894	0.0413269
9024.95	-0.000907116	0.0408632
9216.95	-0.00109786	0.0388214
9408.95	-0.00100249	0.0378047
9600.95	-0.00113601	0.0370648
9792.95	-0.00100249	0.0357564
9984.95	-0.000907116	0.0352716
10177	-0.00107878	0.0345916
10369	-0.00107878	0.0334534
10561	-0.00092619	0.0334108
10753	-0.000945264	0.0325222
10945	-2.00077	-17.6101
11137	-2.00085	-11.5795
11329	-2.00079	-10.159
11521	-2.0009	-9.7629
11713	-0.00109786	16.6771
11905	-0.000945264	2.32658
12097	-0.000811746	1.98749
12289	-0.00104063	1.81222
12481	-0.000907116	1.66207
12673	-0.000964338	1.4965
12865	-0.000964338	1.3177
13057	-0.00092619	1.14825
13249	-0.00102156	0.963342
13441	-0.00102156	0.801418
13633	-0.00104063	0.687365
13825	-0.00104063	0.585983
14017	-0.000964338	0.497014
14209	-0.00113601	0.424422
14401	1.49931	198.948
14593	1.49937	17.043
14785	1.49929	12.4407
14977	1.49927	10.1963
15169	1.4994	8.73727
15361	1.49946	7.71999
15553	1.49939	6.94575
15745	1.49935	6.30663
15937	1.49933	5.77772
16129	1.49931	5.32022
16321	-0.00105971	0.117347
16513	-0.00105971	0.251074
16705	-0.00092619	0.161358
16897	-0.00104063	0.118067
17089	-0.00092619	0.100102
17281	-0.00100249	0.0892317
17473	-0.00102156	0.0782433
17665	-0.00092619	0.0726991
17857	-0.00102156	0.0693878
18049	-0.00100249	0.0643528
18241	-0.000945264	0.0600999
18433	-0.00115508	0.059333
18625	-0.000945264	0.0552463
18817	-0.00102156	0.0525785
19009	-0.00113601	0.0506132
19201	-0.000983412	0.04915
19393	-0.00104063	0.0475317
19585	-0.00113601	0.0458349
19777	-0.00109786	0.0436786
19969	-0.000888042	0.041927
20161	-0.000964338	0.0419838
20353	-0.000983412	0.0408668
20545	-0.000964338	0.0390314
20737	-0.000907116	0.0379371
20929	-0.000888042	0.0388349
21121	-0.00100249	0.0357816
21313	-0.00104063	0.0358382
21505	-0.000983412	0.0361602
21697	-0.000945264	0.0343008
21889	-0.00102156	0.0333241
22081	-0.000983412	0.0340617
22273	-0.00107878	0.032413
22465	-0.00104063	0.0313258
22657	-0.000983412	0.0330391
22849	-0.00111693	0.0312367
23041	-0.000983412	0.031585
23233	-0.000945264	0.0314208
23425	-0.00100249	0.0303314
23617	-0.00104063	0.0292705
23809	-0.00109786	0.0297286
24001	-0.000945264	0.0290743
24193	-0.00107878	0.028858
24385	-0.000983412	0.0282611
24577	-0.00092619	0.0277056
24769	-0.000964338	0.0272416
24961	-0.00107878	0.0270257
25153	-0.00092619	0.0267437
25345	-2.00088	-18.4424
25537	-2.00085	-7.84078
25729	-2.00086	-5.38342
25921	-2.0009	-4.39698
26113	-0.00100249	14.3235
26305	-0.000907116	1.23318
26497	-0.00092619	0.900652
26689	-0.00100249	0.779576
26881	-0.000983412	0.719487
27073	-0.00100249	0.662591
27265	-0.0012123	0.620476
27457	-0.000907116	0.585542
27649	-0.00105971	0.542345
27841	-0.00102156	0.509987
28033	-0.000964338	0.484491
28225	-0.00104063	0.449688
28417	-0.00113601	0.423421
28609	-0.000945264	0.402856
28801	1.49929	200.221
28993	1.49944	9.46304
29185	1.49937	7.36113
29377	1.49927	6.48207
29569	1.49929	5.91091
29761	1.49942	5.49514
29953	1.49944	5.14401
30145	1.49935	4.80209
30337	1.49933	4.49802
30529	1.49954	4.19512
30721	-0.00107878	0.0776444
30913	-0.000983412	0.198506
31105	-0.000945264	0.140006
31297	-0.00102156	0.110174
31489	-0.000907116	0.0954437
31681	-0.00109786	0.086898
31873	-0.000754523	0.0776302
32065	-0.000907116	0.0734624
32257	-0.00100249	0.0702272
32449	-0.00105971	0.0648493
32641	-0.00115508	0.0616843
32833	-0.00105971	0.0606888
33025	-0.0012123	0.057258
33217	-0.00111693	0.0553648
33409	-0.00102156	0.054581
33601	-0.00104063	0.0517404
33793	-0.000983412	0.0494094
33985	-0.00104063	0.0498974
34177	-0.00115508	0.0470897
34369	-0.00100249	0.0453498
34561	-0.00107878	0.0448781
34753	-0.00105971	0.0430153
34945	-0.00105971	0.0422582
35137	-0.00102156	0.0419823
35329	-0.00104063	0.040637
35521	-0.00107878	0.0392038
35713	-0.000964338	0.0388591
35905	-0.000983412	0.0379075
36097	-0.00113601	0.0367801
36289	-0.00100249	0.0363112
36481	-0.00115508	0.0354126
36673	-0.000964338	0.0340752
36865	-0.00105971	0.0339008
37057	-0.000964338	0.0333182
37249	-0.000888042	0.0327774
37441	-0.00107878	0.0318212
37633	-0.000945264	0.0320008
37825	-0.00109786	0.0305361
38017	-0.00100249	0.030686
38209	-0.000964338	0.030024
38401	-0.00104063	0.0296093
38593	-0.00105971	0.0289103
38785	-0.000964338	0.0290985
38977	-0.00115508	0.0283582
39169	-0.00111693	0.0274657
39361	-0.000983412	0.0280763
39553	-0.00107878	0.027208
39745	-2.00079	-13.3341
39937	-2.00094	-6.56884
40129	-2.00098	-4.61102
40321	-2.00083	-3.76529
40513	-0.00123138	14.2096
40705	-0.00105971	0.932079
40897	-0.00111693	0.619025
41089	-0.000983412	0.502733
41281	-0.00102156	0.443098
41473	-0.00113601	0.414299
41665	-0.00115508	0.395367
41857	-0.00115508	0.371713
42049	-0.00104063	0.352967
42241	-0.00113601	0.340996
42433	-0.00104063	0.322414
42625	-0.00105971	0.306679
42817	-0.00105971	0.294978
43009	-0.000983412	0.280312
43201	1.49931	167.096
43393	1.49939	7.425
43585	1.49933	5.72357
43777	1.49931	5.07691
43969	1.49937	4.64499
44161	1.49933	4.30718
44353	1.4991	3.99899
44545	1.49927	3.66435
44737	1.49933	3.3145
44929	1.49931	2.97864
45121	-0.00100249	0.0438217
45313	-0.00104063	0.103388
45505	-0.00119323	0.080641
45697	-0.00107878	0.0688525
45889	-0.00102156	0.0636618
46081	-0.00100249	0.0568376
46273	-0.00107878	0.0532398
46465	-0.00104063	0.0511568
46657	-0.00113601	0.0476782
46849	-0.00102156	0.0454316
47041	-0.00100249	0.0447676
47233	-0.00107878	0.0426417
47425	-0.00100249	0.0414355
47617	-0.000907116	0.0403575
47809	-0.00113601	0.0384325
48001	-0.00111693	0.0377538
48193	-0.00100249	0.0367636
48385	-0.000964338	0.0360214
48577	-0.00104063	0.0349719
48769	-0.00107878	0.0347658
48961	-0.00107878	0.0338294
49153	-0.00104063	0.0325808
49345	-0.00109786	0.0319344
49537	-0.00092619	0.0321564
49729	-0.00100249	0.0310336
49921	-0.00109786	0.0304515
50113	-0.00119323	0.0305785
50305	-0.00107878	0.029744
50497	-0.00117415	0.0289829
50689	-0.00102156	0.0292906
50881	-0.00092619	0.028361
51073	-0.00107878	0.0276048
51265	-0.00105971	0.0278149
51457	-0.00104063	0.0268559
51649	-0.00107878	0.0264304
51841	-0.00107878	0.0263107
52033	-0.00104063	0.0256274
52225	-0.00111693	0.0252681
52417	-0.00100249	0.0253482
52609	-0.00111693	0.0248334
52801	-0.00109786	0.0244689
52993	-0.000945264	0.0242369
53185	-0.00102156	0.0239857
53377	-0.00105971	0.0235938
53569	-0.00113601	0.0236327
53761	-0.00117415	0.0232635
53953	-0.00107878	0.0229824
54145	-2.00094	-10.4977
54337	-2.00094	-5.54687
54529	-2.00081	-4.06956
54721	-2.00086	-3.39532
54913	-0.00111693	13.9973
55105	-0.000945264	0.799752
55297	-0.00107878	0.508838
55489	-0.00105971	0.389883
55681	-0.00107878	0.334803
55873	-0.00104063	0.313837
56065	-0.00107878	0.296541
56257	-0.000983412	0.280468
56449	-0.00117415	0.26753
56641	-0.00113601	0.254401
56833	-0.00100249	0.239327
57025	-0.00100249	0.227188
57217	-0.00115508	0.215519
57409	-0.00107878	0.201241
57600	-0.00102156	0.189861