Folder: Nickel_Dithiolene_Research_Experimental_Data/Data_32_Experiment(25)

Note: README.md
# Nickel_Dithiolene_Research_Experimental_Data
Init_Data
This is a data repository that support the findings in the manuscript "Electrochemically Modulated Separation of Olefin-Paraffin Gas Mixtures in Membrane Electrode Assemblies". All uploaded codes use Matlab software version 2022A or above. All codes can be run on operating system windows 10 or above on any PC with sufficient memory to run Matlab. Refer to the System Requirements Page for Matlab at https://www.mathworks.com/support/requirements/matlab-system-requirements.html for further information.

On matlab, run the script "Graph_Results_Summary_v01" to plot all relevant graphs that are shown in the main manuscript. Further details including Gas Chromatographs of all experimental recordings can be found in individual numbered data folder. To find the appropriate data folder, refer to the excel spreadsheet "Result_Summary" which contains tables of summary data. Each column is labeled by the data folder number to which it pertains to.

In each data folder, it contains all appropriate raw chromatograph data from the MIcro GC 990 as ASCII file in "Compiled_Data" folder. Matlab codes used to analyze the gas chromatographs and chronoamperometry data are also included in each numbered data folder. To output and analyze the raw chromatograph data, run the script "Micro_GC_990_Data_Spreadsheet_Summary_v01". Be sure to edit the path_address within the Matlab script to direct the code to analyze the raw files from the appropriate address in your computer (e.g. C:\Users\Default\Documents\Compiled_Data\). To output the graphs shown in the Supplementary Information, run the script MEA_Experimental_Result_v01. Raw Chronoamperometry data (as text file) from the Potentiostat is included in each numbered data folder.

File: CA_242_C01.txt
time/s	Ewe/V	<I>/mA
1	1.99925	417.108
193	1.99935	19.192
385	1.99935	12.2122
577	1.99942	9.44356
769	1.9995	8.27406
961	1.99948	7.8302
1153	1.99944	7.82172
1345	1.99944	8.0499
1537	1.99931	8.16427
1729	1.99944	8.4522
1920.97	-0.000954038	0.319573
2112.97	-0.00082052	0.183886
2304.97	-0.00091589	0.156566
2496.97	-0.000896816	0.127268
2688.97	-0.00101126	0.0911496
2880.97	-0.000934964	0.0797102
3072.97	-0.000973113	0.0732103
3264.97	-0.000896816	0.0618312
3456.97	-0.000877742	0.0611979
3648.97	-0.00091589	0.0606004
3840.97	-0.000954038	0.0564367
4032.97	-0.000858668	0.0549153
4224.97	-0.000992187	0.0528084
4416.97	-0.000954038	0.0507881
4608.97	-0.000858668	0.0481951
4800.97	-0.000934964	0.0474944
4992.97	-0.00104941	0.0478564
5184.97	-0.000973113	0.0437445
5376.97	-0.000992187	0.0435024
5568.97	-0.000934964	0.0445433
5760.97	-0.000934964	0.0402933
5952.97	-0.00091589	0.0404733
6144.97	-0.000973113	0.0421163
6336.97	-0.000858668	0.0380267
6528.97	-0.000934964	0.0383952
6720.97	-0.000896816	0.039773
6912.97	-0.000934964	0.0362353
7104.97	-0.000934964	0.0370885
7296.97	-0.000877742	0.0376932
7488.97	-0.000954038	0.0349441
7680.97	-0.000896816	0.0351767
7872.97	-0.00101126	0.0357035
8064.97	-0.000896816	0.0338798
8256.97	-0.000954038	0.0342504
8448.97	-0.000858668	0.0344552
8640.97	-0.000954038	0.033144
8832.97	-0.000954038	0.0329789
9024.97	-0.000992187	0.0328762
9216.97	-0.000877742	0.0324362
9408.97	-0.000973113	0.0320947
9600.97	-0.00091589	0.0319583
9792.97	-0.000801446	0.0321545
9984.97	-0.000782372	0.0314506
10177	-0.00106848	0.0312627
10369	-0.000973113	0.0316487
10561	-0.000858668	0.0303
10753	-0.000801446	0.0302009
10945	-2.00087	-18.2838
11137	-2.00097	-8.71793
11329	-2.00097	-7.01489
11521	-2.00103	-6.46427
11713	-0.000839594	9.10946
11905	-0.000934964	1.66355
12097	-0.000858668	1.35192
12289	-0.000992187	1.12971
12481	-0.000896816	0.9917
12673	-0.000954038	0.903266
12865	-0.000934964	0.793074
13057	-0.000706075	0.719764
13249	-0.000954038	0.662373
13441	-0.000877742	0.596206
13633	-0.000877742	0.548617
13825	-0.00104941	0.510455
14017	-0.000973113	0.463041
14209	-0.00114478	0.427953
14401	1.99948	261.047
14593	1.99939	17.9129
14785	1.99935	14.1883
14977	1.99952	12.5743
15169	1.99948	11.56
15361	1.99919	11.2171
15553	1.9994	10.9756
15745	1.99942	10.5572
15937	1.99954	10.5342
16129	1.99942	10.6861
16321	-0.000934964	-0.293192
16513	-0.000973113	-0.130449
16705	-0.000858668	-0.0509195
16897	-0.00101126	-0.0281875
17089	-0.00101126	-0.00448288
17281	-0.000782372	0.0132738
17473	-0.000896816	0.0205334
17665	-0.000839594	0.0222352
17857	-0.000934964	0.0304466
18049	-0.00091589	0.033725
18241	-0.00101126	0.031879
18433	-0.000934964	0.0365986
18625	-0.00082052	0.0397763
18817	-0.00104941	0.0342803
19009	-0.00104941	0.0374653
19201	-0.000858668	0.0392811
19393	-0.000877742	0.033589
19585	-0.000896816	0.0359355
19777	-0.00110663	0.0375893
19969	-0.00101126	0.0336876
20161	-0.000973113	0.035947
20353	-0.000877742	0.0343724
20545	-0.000954038	0.0312854
20737	-0.00101126	0.0322166
20929	-0.000763297	0.0328493
21121	-0.000877742	0.0308797
21313	-0.000934964	0.031433
21505	-0.000858668	0.0315376
21697	-0.00091589	0.0301408
21889	-0.00082052	0.0299951
22081	-0.000896816	0.029795
22273	-0.000877742	0.0295786
22465	-0.00082052	0.028663
22657	-0.000725149	0.0289536
22849	-0.000877742	0.0296896
23041	-0.00106848	0.02748
23233	-0.00101126	0.0276715
23425	-0.000973113	0.0284841
23617	-0.00101126	0.0270888
23809	-0.000934964	0.0274508
24001	-0.000992187	0.0281261
24193	-0.000839594	0.0260521
24385	-0.000877742	0.026258
24577	-0.000839594	0.0274942
24769	-0.00082052	0.0251251
24961	-0.00091589	0.0253729
25153	-0.000877742	0.0261261
25345	-2.0008	-15.2802
25537	-2.00105	-5.84105
25729	-2.00087	-3.81464
25921	-2.0008	-2.90559
26113	-0.000858668	8.55916
26305	-0.000934964	0.912152
26497	-0.00082052	0.648475
26689	-0.000877742	0.538914
26881	-0.000934964	0.486887
27073	-0.00103033	0.447612
27265	-0.000973113	0.417602
27457	-0.000992187	0.396245
27649	-0.000973113	0.375243
27841	-0.000839594	0.352376
28033	-0.000992187	0.33615
28225	-0.00091589	0.323146
28417	-0.000954038	0.302835
28609	-0.000858668	0.289924
28801	1.99927	231.99
28993	1.99952	15.2614
29185	1.9994	12.3956
29377	1.99929	11.4097
29569	1.9994	10.8978
29761	1.99971	10.5326
29953	1.99948	10.4549
30145	1.9994	10.5011
30337	1.99918	10.6004
30529	1.9995	10.6284
30721	-0.000973113	-0.353959
30913	-0.000801446	-0.191777
31105	-0.000858668	-0.13291
31297	-0.000934964	-0.0958855
31489	-0.000877742	-0.0659942
31681	-0.000877742	-0.0473337
31873	-0.000896816	-0.0391133
32065	-0.000801446	-0.0237051
32257	-0.00091589	-0.0111654
32449	-0.00101126	-0.00997036
32641	-0.000973113	-0.000406348
32833	-0.000934964	0.00526067
33025	-0.000954038	0.00547183
33217	-0.000992187	0.0110046
33409	-0.000858668	0.0153183
33601	-0.000706075	0.0136392
33793	-0.000934964	0.0170479
33985	-0.00091589	0.0195918
34177	-0.00091589	0.0191303
34369	-0.000839594	0.0199636
34561	-0.000954038	0.021546
34753	-0.00101126	0.0214432
34945	-0.000973113	0.0214031
35137	-0.000839594	0.0227342
35329	-0.000763297	0.0228376
35521	-0.000877742	0.0221109
35713	-0.000992187	0.0230757
35905	-0.000973113	0.0234934
36097	-0.000973113	0.022082
36289	-0.000877742	0.0228141
36481	-0.000858668	0.0242727
36673	-0.00082052	0.0219013
36865	-0.000954038	0.0228137
37057	-0.000896816	0.0236668
37249	-0.00082052	0.0223405
37441	-0.00091589	0.022687
37633	-0.000839594	0.0235369
37825	-0.000801446	0.021728
38017	-0.000858668	0.0223473
38209	-0.000877742	0.0229906
38401	-0.000896816	0.0211948
38593	-0.000973113	0.0214729
38785	-0.000992187	0.0221732
38977	-0.000858668	0.0212234
39169	-0.000877742	0.0215163
39361	-0.000858668	0.0218601
39553	-0.00091589	0.0213869
39745	-2.00087	-11.2783
39937	-2.00089	-4.87298
40129	-2.00087	-3.30391
40321	-2.00095	-2.59614
40513	-0.000801446	9.05243
40705	-0.00101126	0.672535
40897	-0.00108756	0.45213
41089	-0.000992187	0.359063
41281	-0.00103033	0.311755
41473	-0.00091589	0.277587
41665	-0.000877742	0.261458
41857	-0.00091589	0.253756
42049	-0.000839594	0.236015
42241	-0.00091589	0.22611
42433	-0.000973113	0.220097
42625	-0.00101126	0.20437
42817	-0.000896816	0.194948
43009	-0.000896816	0.188226
43201	1.99925	211.437
43393	1.99952	15.1041
43585	1.9994	12.2744
43777	1.99952	11.7575
43969	1.99937	11.545
44161	1.99956	11.3974
44353	1.99937	11.3657
44545	1.9995	11.2839
44737	1.99935	11.1595
44929	1.99937	11.0683
45121	-0.000744223	-0.432692
45313	-0.000839594	-0.236112
45505	-0.000877742	-0.193393
45697	-0.00106848	-0.161147
45889	-0.000896816	-0.133799
46081	-0.000896816	-0.11911
46273	-0.000992187	-0.0982078
46465	-0.000877742	-0.0820971
46657	-0.00101126	-0.0733004
46849	-0.00091589	-0.0602267
47041	-0.00108756	-0.0494529
47233	-0.000973113	-0.0441695
47425	-0.000877742	-0.0364461
47617	-0.000877742	-0.0292427
47809	-0.000877742	-0.0250997
48001	-0.000954038	-0.0213015
48193	-0.000801446	-0.0161334
48385	-0.00101126	-0.0125977
48577	-0.00091589	-0.0111688
48769	-0.000934964	-0.00705164
48961	-0.000858668	-0.00561846
49153	-0.00101126	-0.00491473
49345	-0.00103033	-0.00182038
49537	-0.000858668	-0.000102112
49729	-0.000839594	5.24117e-05
49921	-0.000801446	0.00214898
50113	-0.000839594	0.00392405
50305	-0.000992187	0.00317385
50497	-0.000973113	0.00500714
50689	-0.000763297	0.0061982
50881	-0.00091589	0.00538576
51073	-0.00103033	0.00708716
51265	-0.00103033	0.00830825
51457	-0.000763297	0.00776865
51649	-0.000934964	0.00869511
51841	-0.000858668	0.00944096
52033	-0.000858668	0.00950506
52225	-0.000877742	0.0101847
52417	-0.000801446	0.0107283
52609	-0.00091589	0.0107684
52801	-0.000858668	0.0109433
52993	-0.00104941	0.0114435
53185	-0.000896816	0.0115447
53377	-0.000954038	0.0114183
53569	-0.000934964	0.0120666
53761	-0.00082052	0.012488
53953	-0.000934964	0.0124989
54145	-2.00082	-8.30355
54337	-2.00085	-3.93029
54529	-2.00084	-2.71066
54721	-2.00091	-2.25077
54913	-0.00082052	9.93965
55105	-0.000877742	0.547818
55297	-0.000896816	0.366458
55489	-0.000954038	0.290221
55681	-0.000839594	0.235581
55873	-0.000782372	0.205407
56065	-0.000801446	0.1881
56257	-0.000954038	0.172064
56449	-0.000973113	0.162815
56641	-0.000839594	0.155837
56833	-0.000973113	0.145242
57025	-0.000877742	0.136376
57217	-0.00082052	0.129241
57409	-0.00091589	0.119726
57600	-0.000839594	0.111769