Folder: Nickel_Dithiolene_Research_Experimental_Data/Data_07_Experiment

Note: README.md
# Nickel_Dithiolene_Research_Experimental_Data
Init_Data
This is a data repository that support the findings in the manuscript "Electrochemically Modulated Separation of Olefin-Paraffin Gas Mixtures in Membrane Electrode Assemblies". All uploaded codes use Matlab software version 2022A or above. All codes can be run on operating system windows 10 or above on any PC with sufficient memory to run Matlab. Refer to the System Requirements Page for Matlab at https://www.mathworks.com/support/requirements/matlab-system-requirements.html for further information.

On matlab, run the script "Graph_Results_Summary_v01" to plot all relevant graphs that are shown in the main manuscript. Further details including Gas Chromatographs of all experimental recordings can be found in individual numbered data folder. To find the appropriate data folder, refer to the excel spreadsheet "Result_Summary" which contains tables of summary data. Each column is labeled by the data folder number to which it pertains to.

In each data folder, it contains all appropriate raw chromatograph data from the MIcro GC 990 as ASCII file in "Compiled_Data" folder. Matlab codes used to analyze the gas chromatographs and chronoamperometry data are also included in each numbered data folder. To output and analyze the raw chromatograph data, run the script "Micro_GC_990_Data_Spreadsheet_Summary_v01". Be sure to edit the path_address within the Matlab script to direct the code to analyze the raw files from the appropriate address in your computer (e.g. C:\Users\Default\Documents\Compiled_Data\). To output the graphs shown in the Supplementary Information, run the script MEA_Experimental_Result_v01. Raw Chronoamperometry data (as text file) from the Potentiostat is included in each numbered data folder.

File: CA_001_C01.txt
time/s	Ewe/V	<I>/mA
1	1.49918	137.048
193	1.49908	4.97778
385	1.49935	4.59517
577	1.49935	4.46566
769	1.49939	4.47281
961	1.49904	4.48368
1153	1.49914	4.39466
1345	1.49944	4.48027
1537	1.49939	4.23169
1729	1.49921	4.15132
1920.95	-0.00105971	0.705726
2112.95	-0.00119323	0.405116
2304.95	-0.000964338	0.309991
2496.95	-0.00115508	0.269388
2688.95	-0.00104063	0.235462
2880.95	-0.00115508	0.20558
3072.95	-0.000697301	0.191018
3264.95	-0.00109786	0.177079
3456.95	-0.00115508	0.163169
3648.95	-0.00092619	0.154263
3840.95	-0.00100249	0.130321
4032.95	-0.00117415	0.12007
4224.95	-0.00104063	0.114421
4416.95	-0.00107878	0.0978376
4608.95	-0.00083082	0.0814157
4800.95	-0.00104063	0.0693436
4992.95	-0.00102156	0.0622024
5184.95	-0.000792671	0.0580888
5376.95	-0.00119323	0.054148
5568.95	-0.000716375	0.0506789
5760.95	-0.00092619	0.0480657
5952.95	-0.00117415	0.0462645
6144.95	-0.000945264	0.0442157
6336.95	-0.00107878	0.0426157
6528.95	-0.00109786	0.0414841
6720.95	-0.00111693	0.0407062
6912.95	-0.00109786	0.0397931
7104.95	-0.00092619	0.0391687
7296.95	-0.000888042	0.038495
7488.95	-0.00105971	0.0370787
7680.95	-0.00105971	0.036358
7872.95	-0.00107878	0.0360565
8064.95	-0.000811746	0.0352017
8256.95	-0.0012886	0.0343118
8448.95	-0.00126952	0.0338957
8640.95	-0.00107878	0.0329869
8832.95	-0.00102156	0.0326141
9024.95	-0.00083082	0.0320702
9216.95	-0.000907116	0.0314494
9408.95	-0.0012123	0.0308623
9600.95	-0.00104063	0.0302612
9792.95	-0.000964338	0.0296763
9984.95	-0.00109786	0.0289881
10177	-0.00125045	0.0287112
10369	-0.000983412	0.028034
10561	-0.00102156	0.0274907
10753	-0.000868968	0.0271565
10945	-2.00083	-10.3386
11137	-2.00075	-7.40066
11329	-2.0009	-6.93834
11521	-2.00102	-6.87648
11713	-0.00107878	8.58013
11905	-0.00102156	1.93035
12097	-0.00104063	1.67298
12289	-0.000888042	1.43186
12481	-0.00104063	1.21376
12673	-0.00100249	1.02872
12865	-0.00119323	0.888085
13057	-0.000716375	0.783563
13249	-0.00104063	0.69677
13441	-0.00111693	0.611523
13633	-0.00136489	0.524417
13825	-0.00109786	0.426893
14017	-0.000983412	0.359473
14209	-0.00111693	0.315765
14401	1.49918	211.119
14593	1.499	14.5085
14785	1.49923	8.91751
14977	1.49914	6.59884
15169	1.49933	5.26339
15361	1.499	4.38962
15553	1.49944	3.79004
15745	1.49944	3.34397
15937	1.49904	2.99963
16129	1.49942	2.69942
16321	-0.00105971	0.0832376
16513	-0.00104063	0.0694097
16705	-0.00105971	0.0602756
16897	-0.000964338	0.0541854
17089	-0.00117415	0.0509357
17281	-0.00125045	0.0494496
17473	-0.00119323	0.0467719
17665	-0.000868968	0.0455052
17857	-0.000792671	0.0435387
18049	-0.00092619	0.0426028
18241	-0.00123138	0.0397566
18433	-0.000964338	0.0387299
18625	-0.00109786	0.0383848
18817	-0.00100249	0.0376079
19009	-0.00132675	0.0363223
19201	-0.00092619	0.0370278
19393	-0.00117415	0.0349156
19585	-0.000811746	0.0343226
19777	-0.000945264	0.0343731
19969	-0.00102156	0.0331058
20161	-0.00100249	0.0326203
20353	-0.000907116	0.032829
20545	-0.00105971	0.0311552
20737	-0.00119323	0.0308129
20929	-0.00107878	0.0312289
21121	-0.00107878	0.030412
21313	-0.00100249	0.0297186
21505	-0.000964338	0.0298383
21697	-0.000811746	0.028914
21889	-0.000983412	0.0285555
22081	-0.000849894	0.0291081
22273	-0.00100249	0.0283191
22465	-0.00105971	0.0281376
22657	-0.00083082	0.0281921
22849	-0.00109786	0.0275387
23041	-0.00119323	0.0273174
23233	-0.0012123	0.0271304
23425	-0.00092619	0.0269704
23617	-0.00115508	0.0266564
23809	-0.000849894	0.0264673
24001	-0.00083082	0.0263308
24193	-0.00113601	0.0262033
24385	-0.000773597	0.0261968
24577	-0.00104063	0.0263562
24769	-0.00104063	0.0258152
24961	-0.00113601	0.0254801
25153	-0.0012886	0.026052
25345	-2.00079	-12.7332
25537	-2.00119	-6.04254
25729	-2.00073	-4.79575
25921	-2.00081	-4.4533
26113	-0.000849894	7.57057
26305	-0.000716375	1.13374
26497	-0.00100249	0.872561
26689	-0.00109786	0.728365
26881	-0.000964338	0.63043
27073	-0.000983412	0.549055
27265	-0.00130767	0.493238
27457	-0.000983412	0.455165
27649	-0.00105971	0.416186
27841	-0.000773597	0.387147
28033	-0.00107878	0.364979
28225	-0.00125045	0.337827
28417	-0.00111693	0.315732
28609	-0.000716375	0.297489
28801	1.49925	207.06
28993	1.49929	9.17514
29185	1.4991	6.56633
29377	1.49956	5.43727
29569	1.49925	4.73194
29761	1.49946	4.23535
29953	1.49931	3.8214
30145	1.49914	3.446
30337	1.49929	3.06744
30529	1.49916	2.68849
30721	-0.00083082	0.06069
30913	-0.00102156	0.0678547
31105	-0.00107878	0.0687206
31297	-0.000983412	0.0661121
31489	-0.000983412	0.0627796
31681	-0.00109786	0.0628593
31873	-0.00100249	0.0584963
32065	-0.000811746	0.0558131
32257	-0.000907116	0.0562922
32449	-0.00107878	0.0518226
32641	-0.000945264	0.0499878
32833	-0.00104063	0.0499293
33025	-0.00105971	0.047372
33217	-0.000849894	0.0449815
33409	-0.00113601	0.0453846
33601	-0.000964338	0.042535
33793	-0.000983412	0.0407945
33985	-0.000945264	0.0412459
34177	-0.00111693	0.0389284
34369	-0.00113601	0.0379054
34561	-0.00104063	0.0376847
34753	-0.00104063	0.0363041
34945	-0.000907116	0.034928
35137	-0.00138397	0.0343478
35329	-0.00117415	0.0335259
35521	-0.00092619	0.032831
35713	-0.000811746	0.0321217
35905	-0.000888042	0.031436
36097	-0.000983412	0.0310099
36289	-0.00109786	0.0300025
36481	-0.00092619	0.0299996
36673	-0.000792671	0.0290454
36865	-0.000849894	0.0283012
37057	-0.00092619	0.0288571
37249	-0.000945264	0.027494
37441	-0.00105971	0.0267776
37633	-0.00105971	0.0275868
37825	-0.00100249	0.0261975
38017	-0.00111693	0.0255351
38209	-0.000907116	0.0262355
38401	-0.00104063	0.0249743
38593	-0.00111693	0.0244132
38785	-0.00105971	0.0248787
38977	-0.00119323	0.0237883
39169	-0.00102156	0.0233923
39361	-0.00126952	0.0236857
39553	-0.00126952	0.0229765
39745	-2.00092	-9.38549
39937	-2.00085	-5.23903
40129	-2.00075	-4.25731
40321	-2.00073	-3.94292
40513	-0.00104063	7.3042
40705	-0.00109786	0.737425
40897	-0.00102156	0.511534
41089	-0.00104063	0.412834
41281	-0.00113601	0.356207
41473	-0.00105971	0.325276
41665	-0.00105971	0.302707
41857	-0.00113601	0.281539
42049	-0.00104063	0.263912
42241	-0.00113601	0.249057
42433	-0.000792671	0.234989
42625	-0.000907116	0.220685
42817	-0.00100249	0.207766
43009	-0.00104063	0.196542
43201	1.4991	165.985
43393	1.4991	6.24419
43585	1.49929	4.2614
43777	1.49935	3.43719
43969	1.49944	2.84852
44161	1.49923	2.43176
44353	1.49923	2.17722
44545	1.49919	2.03756
44737	1.49935	1.9791
44929	1.49937	1.92386
45121	-0.00100249	-0.0454577
45313	-0.00115508	0.0204992
45505	-0.00105971	0.0297989
45697	-0.00109786	0.0338905
45889	-0.00111693	0.0369788
46081	-0.00104063	0.0360068
46273	-0.000773597	0.0356902
46465	-0.00111693	0.0360958
46657	-0.00105971	0.0347752
46849	-0.00113601	0.0337352
47041	-0.00109786	0.0332939
47233	-0.00117415	0.0325549
47425	-0.00109786	0.0315705
47617	-0.00109786	0.0309415
47809	-0.00102156	0.030618
48001	-0.000868968	0.0297324
48193	-0.00107878	0.028845
48385	-0.00105971	0.0288247
48577	-0.00111693	0.0278268
48769	-0.00115508	0.0268445
48961	-0.00092619	0.0272926
49153	-0.000849894	0.0260363
49345	-0.000907116	0.0253244
49537	-0.000945264	0.0259442
49729	-0.00104063	0.0248106
49921	-0.00092619	0.0239541
50113	-0.00138397	0.0247074
50305	-0.0012123	0.0233871
50497	-0.00100249	0.0229504
50689	-0.00102156	0.0234559
50881	-0.000792671	0.022257
51073	-0.000964338	0.0218489
51265	-0.000983412	0.0222656
51457	-0.00102156	0.0214146
51649	-0.00092619	0.0209588
51841	-0.000964338	0.0211565
52033	-0.000983412	0.0205512
52225	-0.000888042	0.0201303
52417	-0.000945264	0.0201142
52609	-0.000811746	0.0197893
52801	-0.00119323	0.0195026
52993	-0.000983412	0.019326
53185	-0.00100249	0.0190385
53377	-0.00104063	0.018748
53569	-0.00113601	0.0184819
53761	-0.00104063	0.0184876
53953	-0.00092619	0.0181949
54145	-2.00056	-6.84746
54337	-2.00081	-4.20832
54529	-2.00073	-3.50683
54721	-2.00073	-3.26376
54913	-0.00111693	7.07742
55105	-0.000964338	0.628287
55297	-0.000773597	0.401433
55489	-0.000849894	0.313751
55681	-0.00109786	0.268831
55873	-0.000907116	0.24547
56065	-0.00111693	0.229321
56257	-0.000888042	0.210925
56449	-0.00107878	0.195709
56641	-0.00123138	0.183996
56833	-0.00104063	0.168444
57025	-0.00109786	0.155171
57217	-0.00107878	0.144915
57409	-0.00104063	0.13214
57600	-0.00104063	0.122239