Folder: Nickel_Dithiolene_Research_Experimental_Data/Data_14_Experiment

Note: README.md
# Nickel_Dithiolene_Research_Experimental_Data
Init_Data
This is a data repository that support the findings in the manuscript "Electrochemically Modulated Separation of Olefin-Paraffin Gas Mixtures in Membrane Electrode Assemblies". All uploaded codes use Matlab software version 2022A or above. All codes can be run on operating system windows 10 or above on any PC with sufficient memory to run Matlab. Refer to the System Requirements Page for Matlab at https://www.mathworks.com/support/requirements/matlab-system-requirements.html for further information.

On matlab, run the script "Graph_Results_Summary_v01" to plot all relevant graphs that are shown in the main manuscript. Further details including Gas Chromatographs of all experimental recordings can be found in individual numbered data folder. To find the appropriate data folder, refer to the excel spreadsheet "Result_Summary" which contains tables of summary data. Each column is labeled by the data folder number to which it pertains to.

In each data folder, it contains all appropriate raw chromatograph data from the MIcro GC 990 as ASCII file in "Compiled_Data" folder. Matlab codes used to analyze the gas chromatographs and chronoamperometry data are also included in each numbered data folder. To output and analyze the raw chromatograph data, run the script "Micro_GC_990_Data_Spreadsheet_Summary_v01". Be sure to edit the path_address within the Matlab script to direct the code to analyze the raw files from the appropriate address in your computer (e.g. C:\Users\Default\Documents\Compiled_Data\). To output the graphs shown in the Supplementary Information, run the script MEA_Experimental_Result_v01. Raw Chronoamperometry data (as text file) from the Potentiostat is included in each numbered data folder.

File: CA_001_C01.txt
time/s	Ewe/V	<I>/mA
1	1.49927	430.192
193	1.49927	40.8211
385	1.49923	22.8039
577	1.49916	14.0152
769	1.49935	9.66009
961	1.49923	7.11572
1153	1.49942	5.51896
1345	1.49937	4.41625
1537	1.49929	3.66621
1729	1.49937	3.12887
1920.95	-0.00100249	-0.0706321
2112.95	-0.000907116	0.335274
2304.95	-0.00100249	0.328873
2496.95	-0.00119323	0.247339
2688.95	-0.00092619	0.196085
2880.95	-0.00104063	0.14223
3072.95	-0.00111693	0.117585
3264.95	-0.00105971	0.106185
3456.95	-0.00113601	0.0891583
3648.95	-0.00100249	0.0827996
3840.95	-0.00109786	0.0810003
4032.95	-0.00113601	0.072082
4224.95	-0.00100249	0.0684672
4416.95	-0.00113601	0.0682412
4608.95	-0.00111693	0.0648583
4800.95	-0.00109786	0.0598174
4992.95	-0.000945264	0.0602226
5184.95	-0.00109786	0.0585448
5376.95	-0.00111693	0.0560895
5568.95	-0.00092619	0.0552853
5760.95	-0.00092619	0.0552511
5952.95	-0.00105971	0.0527969
6144.95	-0.00105971	0.0516719
6336.95	-0.000888042	0.0522549
6528.95	-0.00109786	0.0479644
6720.95	-0.00102156	0.0476825
6912.95	-0.00100249	0.0513013
7104.95	-0.00107878	0.0467048
7296.95	-0.00102156	0.046225
7488.95	-0.00100249	0.0492156
7680.95	-0.00107878	0.045428
7872.95	-0.00113601	0.0450535
8064.95	-0.00105971	0.0459405
8256.95	-0.00100249	0.0431893
8448.95	-0.00109786	0.0426148
8640.95	-0.000983412	0.0450365
8832.95	-0.00115508	0.0425754
9024.95	-0.00104063	0.0419143
9216.95	-0.000849894	0.0425994
9408.95	-0.00105971	0.040329
9600.95	-0.00107878	0.0403083
9792.95	-0.000983412	0.0410587
9984.95	-0.000907116	0.0395723
10177	-0.00104063	0.0392449
10369	-0.000964338	0.0402155
10561	-0.00100249	0.0388299
10753	-0.000983412	0.038
10945	-2.00073	-25.1613
11137	-2.00073	-9.29414
11329	-2.00083	-6.08209
11521	-2.00073	-4.80445
11713	-0.00117415	13.5142
11905	-0.000964338	1.39466
12097	-0.00100249	1.07111
12289	-0.00113601	0.907467
12481	-0.00107878	0.76998
12673	-0.000945264	0.665313
12865	-0.00083082	0.599186
13057	-0.00092619	0.542693
13249	-0.0012123	0.503552
13441	-0.00113601	0.474462
13633	-0.000983412	0.442933
13825	-0.00092619	0.417702
14017	-0.00117415	0.397769
14209	-0.00102156	0.37349
14401	1.49912	173.671
14593	1.49935	10.726
14785	1.49933	7.51691
14977	1.49933	6.1098
15169	1.49927	5.19712
15361	1.49937	4.47342
15553	1.49931	3.82228
15745	1.49931	3.27152
15937	1.49927	2.80617
16129	1.49933	2.45276
16321	-0.00107878	-0.0619347
16513	-0.00102156	0.273994
16705	-0.00107878	0.272209
16897	-0.00113601	0.205552
17089	-0.00107878	0.154996
17281	-0.00109786	0.122822
17473	-0.00104063	0.105918
17665	-0.00107878	0.0952664
17857	-0.00100249	0.0836254
18049	-0.00113601	0.077475
18241	-0.00111693	0.0749644
18433	-0.000754523	0.0689134
18625	-0.00102156	0.0649797
18817	-0.000888042	0.0637478
19009	-0.00111693	0.0588037
19201	-0.00107878	0.0572512
19393	-0.00109786	0.0560982
19585	-0.000964338	0.0528827
19777	-0.000983412	0.0513407
19969	-0.000945264	0.0513172
20161	-0.00107878	0.0482894
20353	-0.00123138	0.0458807
20545	-0.00107878	0.0449982
20737	-0.00100249	0.0422072
20929	-0.000983412	0.0409728
21121	-0.00102156	0.0413338
21313	-0.00115508	0.039526
21505	-0.00092619	0.0382857
21697	-0.000868968	0.0378823
21889	-0.00111693	0.0361627
22081	-0.000945264	0.0353259
22273	-0.000983412	0.0351388
22465	-0.00100249	0.034379
22657	-0.00111693	0.032792
22849	-0.000888042	0.0326701
23041	-0.00083082	0.0324301
23233	-0.00104063	0.0315906
23425	-0.00115508	0.0312713
23617	-0.00107878	0.0305789
23809	-0.00104063	0.0296916
24001	-0.00092619	0.0292311
24193	-0.000964338	0.0291137
24385	-0.00109786	0.0282686
24577	-0.00123138	0.0272577
24769	-0.00109786	0.0276782
24961	-0.000983412	0.0265221
25153	-0.000964338	0.0262238
25345	-2.00086	-13.7567
25537	-2.00088	-6.12786
25729	-2.00094	-4.27781
25921	-2.00096	-3.48778
26113	-0.00102156	13.2455
26305	-0.00105971	0.991855
26497	-0.00100249	0.675463
26689	-0.000983412	0.525768
26881	-0.000964338	0.429632
27073	-0.00111693	0.369315
27265	-0.00104063	0.325474
27457	-0.000792671	0.2938
27649	-0.000964338	0.271518
27841	-0.00104063	0.250672
28033	-0.000964338	0.23302
28225	-0.00104063	0.219907
28417	-0.00111693	0.20569
28609	-0.00102156	0.193588
28801	1.49933	132.104
28993	1.49927	8.22625
29185	1.49925	5.6343
29377	1.49919	4.2368
29569	1.4994	3.28204
29761	1.49942	2.62558
29953	1.49944	2.24045
30145	1.49921	2.02383
30337	1.49948	1.83526
30529	1.49931	1.70582
30721	-0.000888042	0.0615497
30913	-0.00100249	0.197668
31105	-0.00100249	0.138002
31297	-0.00102156	0.101081
31489	-0.000945264	0.0795231
31681	-0.00119323	0.0680058
31873	-0.00119323	0.0624921
32065	-0.00113601	0.0559757
32257	-0.000811746	0.0519156
32449	-0.00102156	0.0492646
32641	-0.000983412	0.0460659
32833	-0.000983412	0.0437387
33025	-0.00100249	0.0424838
33217	-0.000945264	0.0403601
33409	-0.000983412	0.0387452
33601	-0.00107878	0.0379794
33793	-0.00102156	0.0366187
33985	-0.000888042	0.0351022
34177	-0.000945264	0.0344602
34369	-0.000983412	0.03326
34561	-0.00115508	0.0326533
34753	-0.00113601	0.0315583
34945	-0.00104063	0.0310732
35137	-0.000983412	0.029858
35329	-0.00105971	0.0295956
35521	-0.00105971	0.029119
35713	-0.000945264	0.0283412
35905	-0.000964338	0.0276843
36097	-0.00109786	0.0277447
36289	-0.00100249	0.026534
36481	-0.00102156	0.0258404
36673	-0.00117415	0.0258454
36865	-0.00104063	0.0248948
37057	-0.000945264	0.0243918
37249	-0.00107878	0.0244832
37441	-0.00107878	0.0236539
37633	-0.00104063	0.0231922
37825	-0.000907116	0.0231302
38017	-0.000983412	0.0224366
38209	-0.00107878	0.0219043
38401	-0.00119323	0.0219674
38593	-0.00102156	0.0213814
38785	-0.00117415	0.0211246
38977	-0.000868968	0.0211432
39169	-0.00100249	0.0207036
39361	-0.000811746	0.0203611
39553	-0.000907116	0.0202999
39745	-2.00081	-8.631
39937	-2.00094	-4.55773
40129	-2.0009	-3.48613
40321	-2.00077	-2.9899
40513	-0.00092619	14.1485
40705	-0.00105971	0.689066
40897	-0.00105971	0.420284
41089	-0.000907116	0.318442
41281	-0.000888042	0.263046
41473	-0.000888042	0.227059
41665	-0.00102156	0.200385
41857	-0.00092619	0.180567
42049	-0.00109786	0.165187
42241	-0.00109786	0.151638
42433	-0.000849894	0.140371
42625	-0.000983412	0.131483
42817	-0.000964338	0.122554
43009	-0.00113601	0.115197
43201	1.49916	116.667
43393	1.49925	7.07639
43585	1.49925	4.19587
43777	1.49929	2.93401
43969	1.49929	2.33814
44161	1.49927	2.03216
44353	1.49942	1.85846
44545	1.49923	1.71511
44737	1.49925	1.61496
44929	1.4994	1.54994
45121	-0.00104063	0.0829949
45313	-0.00119323	0.141205
45505	-0.000964338	0.0924757
45697	-0.000849894	0.0660804
45889	-0.00100249	0.0534637
46081	-0.000907116	0.04701
46273	-0.000964338	0.0419282
46465	-0.00105971	0.0383248
46657	-0.00102156	0.0362789
46849	-0.00102156	0.0342269
47041	-0.00105971	0.032256
47233	-0.00109786	0.0312369
47425	-0.00109786	0.0301129
47617	-0.0012123	0.0286165
47809	-0.000945264	0.0279389
48001	-0.00119323	0.0272902
48193	-0.000907116	0.0260151
48385	-0.000964338	0.0254943
48577	-0.00115508	0.0251667
48769	-0.00107878	0.0241533
48961	-0.000849894	0.0237885
49153	-0.000907116	0.0234532
49345	-0.00100249	0.0226674
49537	-0.000964338	0.0221243
49729	-0.00104063	0.0218185
49921	-0.00104063	0.0212216
50113	-0.000964338	0.0209421
50305	-0.00109786	0.0206862
50497	-0.00102156	0.0201409
50689	-0.00115508	0.0198112
50881	-0.00100249	0.0197411
51073	-0.000868968	0.0193862
51265	-0.00102156	0.0190061
51457	-0.00100249	0.0188709
51649	-0.00104063	0.0185872
51841	-0.000888042	0.0183738
52033	-0.00107878	0.0182017
52225	-0.00109786	0.0179889
52417	-0.000964338	0.0177171
52609	-0.00111693	0.017579
52801	-0.000849894	0.0173919
52993	-0.000849894	0.0171396
53185	-0.000792671	0.0168585
53377	-0.00107878	0.0167578
53569	-0.00102156	0.0163881
53761	-0.00104063	0.01631
53953	-0.00092619	0.0161992
54145	-2.0009	-6.34706
54337	-2.00067	-3.83684
54529	-2.0009	-3.20271
54721	-2.00085	-2.90398
54913	-0.00105971	14.4767
55105	-0.00100249	0.50794
55297	-0.00113601	0.286313
55489	-0.00092619	0.212126
55681	-0.00113601	0.173842
55873	-0.00111693	0.148052
56065	-0.000907116	0.130214
56257	-0.00100249	0.11732
56449	-0.00115508	0.106237
56641	-0.00107878	0.0975431
56833	-0.000945264	0.0903402
57025	-0.00092619	0.0837339
57217	-0.000964338	0.078318
57409	-0.00109786	0.0738922
57600	-0.000888042	0.0700191