Folder: Nickel_Dithiolene_Research_Experimental_Data/Data_10_Experiment

Note: README.md
# Nickel_Dithiolene_Research_Experimental_Data
Init_Data
This is a data repository that support the findings in the manuscript "Electrochemically Modulated Separation of Olefin-Paraffin Gas Mixtures in Membrane Electrode Assemblies". All uploaded codes use Matlab software version 2022A or above. All codes can be run on operating system windows 10 or above on any PC with sufficient memory to run Matlab. Refer to the System Requirements Page for Matlab at https://www.mathworks.com/support/requirements/matlab-system-requirements.html for further information.

On matlab, run the script "Graph_Results_Summary_v01" to plot all relevant graphs that are shown in the main manuscript. Further details including Gas Chromatographs of all experimental recordings can be found in individual numbered data folder. To find the appropriate data folder, refer to the excel spreadsheet "Result_Summary" which contains tables of summary data. Each column is labeled by the data folder number to which it pertains to.

In each data folder, it contains all appropriate raw chromatograph data from the MIcro GC 990 as ASCII file in "Compiled_Data" folder. Matlab codes used to analyze the gas chromatographs and chronoamperometry data are also included in each numbered data folder. To output and analyze the raw chromatograph data, run the script "Micro_GC_990_Data_Spreadsheet_Summary_v01". Be sure to edit the path_address within the Matlab script to direct the code to analyze the raw files from the appropriate address in your computer (e.g. C:\Users\Default\Documents\Compiled_Data\). To output the graphs shown in the Supplementary Information, run the script MEA_Experimental_Result_v01. Raw Chronoamperometry data (as text file) from the Potentiostat is included in each numbered data folder.

File: CA_001_C01.txt
time/s	Ewe/V	<I>/mA
1	1.49923	86.7816
193	1.49937	3.73674
385	1.49929	3.54328
577	1.49921	3.56066
769	1.49935	3.3399
961	1.49935	3.45328
1153	1.49918	3.32361
1345	1.49933	3.14812
1537	1.49929	3.23383
1729	1.49927	3.08548
1920.95	-0.00105971	-0.125557
2112.95	-0.000964338	-0.0148043
2304.95	-0.000868968	0.00488193
2496.95	-0.000983412	0.0118693
2688.95	-0.00109786	0.0153914
2880.95	-0.00115508	0.0167019
3072.95	-0.00113601	0.0175169
3264.95	-0.00102156	0.0182467
3456.95	-0.000907116	0.018137
3648.95	-0.00092619	0.0180397
3840.95	-0.00123138	0.0182388
4032.95	-0.00107878	0.017943
4224.95	-0.00100249	0.0176651
4416.95	-0.00109786	0.0178403
4608.95	-0.00100249	0.0172634
4800.95	-0.00105971	0.0170676
4992.95	-0.000888042	0.0170977
5184.95	-0.000983412	0.0166082
5376.95	-0.00111693	0.0163796
5568.95	-0.00109786	0.016451
5760.95	-0.000907116	0.0159933
5952.95	-0.00107878	0.0158317
6144.95	-0.00109786	0.0158402
6336.95	-0.00092619	0.015491
6528.95	-0.00092619	0.0152738
6720.95	-0.00102156	0.0151584
6912.95	-0.00092619	0.0151562
7104.95	-0.00111693	0.0148426
7296.95	-0.00102156	0.0147668
7488.95	-0.00100249	0.0145777
7680.95	-0.00100249	0.0143722
7872.95	-0.00100249	0.0142128
8064.95	-0.00092619	0.0141735
8256.95	-0.00083082	0.0141111
8448.95	-0.000907116	0.013835
8640.95	-0.00102156	0.0138413
8832.95	-0.00102156	0.0136088
9024.95	-0.000945264	0.0134743
9216.95	-0.00111693	0.0134999
9408.95	-0.00115508	0.0132134
9600.95	-0.00107878	0.0129655
9792.95	-0.00102156	0.0132032
9984.95	-0.00109786	0.0129168
10177	-0.000888042	0.012681
10369	-0.00107878	0.0129498
10561	-0.00100249	0.0125677
10753	-0.00111693	0.0123603
10945	-2.00085	-8.26328
11137	-2.00079	-6.11629
11329	-2.00079	-6.05072
11521	-2.00079	-6.45675
11713	-0.00100249	7.8025
11905	-0.000945264	0.581064
12097	-0.00105971	0.349225
12289	-0.00107878	0.260002
12481	-0.00100249	0.21051
12673	-0.00102156	0.177936
12865	-0.00100249	0.15197
13057	-0.000907116	0.132736
13249	-0.00105971	0.118611
13441	-0.00125045	0.105923
13633	-0.000888042	0.0957112
13825	-0.000983412	0.0877288
14017	-0.00083082	0.0800579
14209	-0.000945264	0.0742076
14401	1.49939	137.601
14593	1.49933	4.31035
14785	1.49923	3.2453
14977	1.49931	3.31606
15169	1.49935	3.4163
15361	1.49927	3.31208
15553	1.49925	3.17123
15745	1.49935	3.16496
15937	1.49935	3.04972
16129	1.49923	2.88856
16321	-0.00102156	-0.116143
16513	-0.00105971	-0.00881112
16705	-0.00107878	0.00965909
16897	-0.00102156	0.0172877
17089	-0.00119323	0.0191266
17281	-0.00109786	0.0200794
17473	-0.000964338	0.0214416
17665	-0.00109786	0.0209429
17857	-0.00115508	0.0209072
18049	-0.000907116	0.021332
18241	-0.00104063	0.0204541
18433	-0.00105971	0.0201174
18625	-0.00109786	0.0201737
18817	-0.00113601	0.0191241
19009	-0.00115508	0.0189316
19201	-0.00092619	0.0186776
19393	-0.000716375	0.0180664
19585	-0.000964338	0.0178521
19777	-0.00100249	0.0174212
19969	-0.000907116	0.0171425
20161	-0.000945264	0.016633
20353	-0.00107878	0.016307
20545	-0.00083082	0.0161121
20737	-0.00102156	0.0158316
20929	-0.000945264	0.0153948
21121	-0.00109786	0.0153395
21313	-0.000964338	0.0149006
21505	-0.000849894	0.0144868
21697	-0.00102156	0.0147147
21889	-0.00123138	0.0141727
22081	-0.00109786	0.0137805
22273	-0.00102156	0.014107
22465	-0.00111693	0.0135437
22657	-0.00105971	0.0131428
22849	-0.000907116	0.0134495
23041	-0.00102156	0.0129716
23233	-0.000888042	0.0126559
23425	-0.000868968	0.0128363
23617	-0.00113601	0.0124441
23809	-0.00102156	0.0122613
24001	-0.000983412	0.0123041
24193	-0.00105971	0.011984
24385	-0.00113601	0.0118048
24577	-0.000945264	0.0120104
24769	-0.00109786	0.0115385
24961	-0.00113601	0.0114091
25153	-0.000964338	0.0114872
25345	-2.0009	-6.6766
25537	-2.00083	-5.03049
25729	-2.00094	-5.10322
25921	-2.00079	-5.62455
26113	-0.00107878	7.25019
26305	-0.00107878	0.41485
26497	-0.00107878	0.233393
26689	-0.000811746	0.173152
26881	-0.00115508	0.142095
27073	-0.00105971	0.120022
27265	-0.000868968	0.104165
27457	-0.000907116	0.0923188
27649	-0.000849894	0.082926
27841	-0.000907116	0.0747324
28033	-0.00111693	0.0683725
28225	-0.00105971	0.0633916
28417	-0.000907116	0.058433
28609	-0.0012123	0.0544805
28801	1.49916	132.525
28993	1.49929	3.31356
29185	1.49935	3.23316
29377	1.49929	3.31016
29569	1.49931	3.22426
29761	1.49921	3.10391
29953	1.49931	3.07093
30145	1.49919	2.98188
30337	1.49937	2.84063
30529	1.49929	2.79342
30721	-0.00109786	-0.137992
30913	-0.0012123	-0.0214897
31105	-0.000983412	-1.80744e-05
31297	-0.00111693	0.00703746
31489	-0.00109786	0.0104063
31681	-0.00100249	0.0122229
31873	-0.000945264	0.012959
32065	-0.000983412	0.013432
32257	-0.00107878	0.0135306
32449	-0.000792671	0.0135659
32641	-0.000907116	0.0134461
32833	-0.00115508	0.0133272
33025	-0.00111693	0.0134494
33217	-0.00107878	0.0128633
33409	-0.00102156	0.0126585
33601	-0.00104063	0.0129486
33793	-0.000945264	0.0123899
33985	-0.00083082	0.0120063
34177	-0.00111693	0.0124941
34369	-0.00115508	0.0117953
34561	-0.000964338	0.0115097
34753	-0.00100249	0.0118934
34945	-0.000964338	0.0112555
35137	-0.00111693	0.0109667
35329	-0.000849894	0.0111324
35521	-0.00102156	0.0106593
35713	-0.00113601	0.0103728
35905	-0.00113601	0.0107119
36097	-0.00102156	0.0101963
36289	-0.00100249	0.0099318
36481	-0.00100249	0.0100157
36673	-0.00104063	0.00978568
36865	-0.000964338	0.00946892
37057	-0.000907116	0.00966428
37249	-0.00102156	0.00943277
37441	-0.00100249	0.00923342
37633	-0.00102156	0.00902944
37825	-0.00119323	0.00883918
38017	-0.00115508	0.00884022
38209	-0.000983412	0.00886183
38401	-0.0012123	0.00874464
38593	-0.00102156	0.00857137
38785	-0.00115508	0.00847138
38977	-0.00109786	0.00866628
39169	-0.00100249	0.00828053
39361	-0.000907116	0.0083059
39553	-0.00102156	0.00826622
39745	-2.00098	-6.21016
39937	-2.00075	-4.96782
40129	-2.00083	-4.87842
40321	-2.00077	-5.13868
40513	-0.00083082	7.29251
40705	-0.00102156	0.36239
40897	-0.00092619	0.185724
41089	-0.00105971	0.132959
41281	-0.00092619	0.107787
41473	-0.00092619	0.090538
41665	-0.00104063	0.0787073
41857	-0.00100249	0.0712834
42049	-0.00119323	0.063449
42241	-0.00104063	0.0576669
42433	-0.00102156	0.0539633
42625	-0.00105971	0.0494866
42817	-0.000983412	0.0458714
43009	-0.000983412	0.0433892
43201	1.49919	130.329
43393	1.49925	3.08145
43585	1.49918	3.27316
43777	1.49939	3.23874
43969	1.49914	3.08703
44161	1.49919	2.97965
44353	1.49918	2.92667
44545	1.4994	2.81967
44737	1.49931	2.73582
44929	1.49927	2.6918
45121	-0.00107878	-0.148132
45313	-0.000964338	-0.0286562
45505	-0.000964338	-0.00618369
45697	-0.00105971	0.00159291
45889	-0.00119323	0.00516801
46081	-0.00104063	0.00802271
46273	-0.00104063	0.00851958
46465	-0.000964338	0.00902357
46657	-0.00100249	0.00997594
46849	-0.00104063	0.00977294
47041	-0.000983412	0.00945279
47233	-0.00104063	0.0101748
47425	-0.000868968	0.00977366
47617	-0.00111693	0.00950384
47809	-0.000964338	0.00991095
48001	-0.00102156	0.00944978
48193	-0.00105971	0.00929486
48385	-0.000945264	0.00941383
48577	-0.00092619	0.00916804
48769	-0.000945264	0.00901577
48961	-0.000964338	0.00904988
49153	-0.00117415	0.00886066
49345	-0.00107878	0.00870197
49537	-0.000868968	0.00857578
49729	-0.00102156	0.0084758
49921	-0.000888042	0.00833538
50113	-0.00104063	0.00828679
50305	-0.00104063	0.00826441
50497	-0.000964338	0.00807821
50689	-0.000983412	0.00791986
50881	-0.00109786	0.00793966
51073	-0.00100249	0.00781024
51265	-0.000849894	0.00772064
51457	-0.000907116	0.00781889
51649	-0.000811746	0.00752422
51841	-0.00102156	0.00737111
52033	-0.00107878	0.00760877
52225	-0.00115508	0.00735573
52417	-0.00102156	0.00722157
52609	-0.00102156	0.00743142
52801	-0.00107878	0.00714811
52993	-0.000964338	0.00701015
53185	-0.00100249	0.00714712
53377	-0.00092619	0.00682965
53569	-0.00115508	0.00676403
53761	-0.000983412	0.00698036
53953	-0.00092619	0.00681805
54145	-2.00083	-6.19065
54337	-2.00088	-5.23821
54529	-2.00083	-5.18981
54721	-2.00079	-5.37914
54913	-0.000907116	7.58945
55105	-0.00100249	0.352779
55297	-0.000983412	0.169767
55489	-0.000983412	0.119481
55681	-0.00100249	0.0938978
55873	-0.00115508	0.0788825
56065	-0.000945264	0.0696157
56257	-0.00102156	0.0615677
56449	-0.00100249	0.055506
56641	-0.000964338	0.051195
56833	-0.00111693	0.0469715
57025	-0.000907116	0.0436229
57217	-0.00117415	0.0409042
57409	-0.00100249	0.0383158
57600	-0.000907116	0.0360667