Folder: Nickel_Dithiolene_Research_Experimental_Data/Data_12_Experiment

Note: README.md
# Nickel_Dithiolene_Research_Experimental_Data
Init_Data
This is a data repository that support the findings in the manuscript "Electrochemically Modulated Separation of Olefin-Paraffin Gas Mixtures in Membrane Electrode Assemblies". All uploaded codes use Matlab software version 2022A or above. All codes can be run on operating system windows 10 or above on any PC with sufficient memory to run Matlab. Refer to the System Requirements Page for Matlab at https://www.mathworks.com/support/requirements/matlab-system-requirements.html for further information.

On matlab, run the script "Graph_Results_Summary_v01" to plot all relevant graphs that are shown in the main manuscript. Further details including Gas Chromatographs of all experimental recordings can be found in individual numbered data folder. To find the appropriate data folder, refer to the excel spreadsheet "Result_Summary" which contains tables of summary data. Each column is labeled by the data folder number to which it pertains to.

In each data folder, it contains all appropriate raw chromatograph data from the MIcro GC 990 as ASCII file in "Compiled_Data" folder. Matlab codes used to analyze the gas chromatographs and chronoamperometry data are also included in each numbered data folder. To output and analyze the raw chromatograph data, run the script "Micro_GC_990_Data_Spreadsheet_Summary_v01". Be sure to edit the path_address within the Matlab script to direct the code to analyze the raw files from the appropriate address in your computer (e.g. C:\Users\Default\Documents\Compiled_Data\). To output the graphs shown in the Supplementary Information, run the script MEA_Experimental_Result_v01. Raw Chronoamperometry data (as text file) from the Potentiostat is included in each numbered data folder.

File: CA_001_C01.txt
time/s	Ewe/V	<I>/mA
1	1.4994	348.683
193.002	1.49948	22.4229
385.002	1.49925	15.9775
577.002	1.49935	12.9328
769.002	1.49929	11.1698
961.002	1.49946	10.0677
1153	1.49937	9.34191
1345	1.49939	8.67482
1537	1.4994	7.94385
1729	1.4994	7.25096
1920.95	-0.00105971	0.287304
2112.95	-0.00125045	0.426574
2304.95	-0.00100249	0.273437
2496.95	-0.00109786	0.187016
2688.95	-0.00102156	0.13514
2880.95	-0.000907116	0.0875286
3072.95	-0.00092619	0.0783794
3264.95	-0.00100249	0.0728216
3456.95	-0.000983412	0.0522012
3648.95	-0.00104063	0.053309
3840.95	-0.00104063	0.0576987
4032.95	-0.00105971	0.040048
4224.95	-0.00111693	0.0438744
4416.95	-0.00105971	0.0504606
4608.95	-0.00100249	0.0350418
4800.95	-0.00102156	0.0391961
4992.95	-0.00107878	0.0460207
5184.95	-0.000964338	0.0324274
5376.95	-0.00111693	0.0355653
5568.95	-0.00117415	0.0426611
5760.95	-0.00119323	0.0316091
5952.95	-0.00102156	0.0337097
6144.95	-0.00107878	0.0402566
6336.95	-0.00104063	0.030979
6528.95	-0.000945264	0.0328404
6720.95	-0.000945264	0.037953
6912.95	-0.00109786	0.0316911
7104.95	-0.00107878	0.0319568
7296.95	-0.00109786	0.0362061
7488.95	-0.00125045	0.0316644
7680.95	-0.000964338	0.0314266
7872.95	-0.00100249	0.0346584
8064.95	-0.00104063	0.0322017
8256.95	-0.000945264	0.0310225
8448.95	-0.00107878	0.0334069
8640.95	-0.000945264	0.032554
8832.95	-0.00111693	0.0303829
9024.95	-0.000849894	0.0323836
9216.95	-0.000945264	0.0331493
9408.95	-0.00105971	0.0303141
9600.95	-0.00092619	0.0319578
9792.95	-0.000907116	0.0328829
9984.95	-0.000983412	0.0299778
10177	-0.00100249	0.031208
10369	-0.000964338	0.032634
10561	-0.000945264	0.029726
10753	-0.00100249	0.0310205
10945	-2.00094	-20.6592
11137	-2.00088	-8.52307
11329	-2.00086	-5.93125
11521	-2.00085	-5.23396
11713	-0.00107878	10.53
11905	-0.00109786	1.20528
12097	-0.000907116	0.921595
12289	-0.00100249	0.787747
12481	-0.000945264	0.707109
12673	-0.00107878	0.646254
12865	-0.0012123	0.588026
13057	-0.00107878	0.53706
13249	-0.00092619	0.49358
13441	-0.000983412	0.447764
13633	-0.00105971	0.405683
13825	-0.000964338	0.372476
14017	-0.00109786	0.341004
14209	-0.000964338	0.313728
14401	1.49946	304.959
14593	1.49921	18.0867
14785	1.49937	10.7818
14977	1.49942	7.55938
15169	1.49927	5.63907
15361	1.49937	4.4347
15553	1.49929	3.64573
15745	1.49929	3.08149
15937	1.49912	2.7203
16129	1.49914	2.44499
16321	-0.000849894	0.093828
16513	-0.00109786	0.109743
16705	-0.00100249	0.090418
16897	-0.000983412	0.0815241
17089	-0.00104063	0.0700943
17281	-0.000983412	0.0661599
17473	-0.00100249	0.0643908
17665	-0.000964338	0.0572493
17857	-0.000945264	0.0555717
18049	-0.00092619	0.0551997
18241	-0.00102156	0.0492249
18433	-0.00100249	0.0479688
18625	-0.00092619	0.0474678
18817	-0.000888042	0.0436503
19009	-0.00105971	0.0418568
19201	-0.00107878	0.042472
19393	-0.000945264	0.0395192
19585	-0.00105971	0.0380252
19777	-0.00109786	0.0383839
19969	-0.000907116	0.03671
20161	-0.00105971	0.0348892
20353	-0.00105971	0.0355394
20545	-0.00105971	0.0342188
20737	-0.00104063	0.0328162
20929	-0.00105971	0.0330843
21121	-0.00104063	0.0324434
21313	-0.000983412	0.0306519
21505	-0.00100249	0.0311345
21697	-0.00115508	0.0310121
21889	-0.00102156	0.0294415
22081	-0.00100249	0.0294521
22273	-0.000849894	0.0293195
22465	-0.00092619	0.0282242
22657	-0.00111693	0.028056
22849	-0.00109786	0.0283227
23041	-0.00111693	0.0268979
23233	-0.00105971	0.0269861
23425	-0.00105971	0.0273761
23617	-0.00102156	0.0260232
23809	-0.00111693	0.0260469
24001	-0.00102156	0.0261016
24193	-0.000888042	0.0248569
24385	-0.00107878	0.0255817
24577	-0.00107878	0.0254127
24769	-0.00083082	0.0249581
24961	-0.00105971	0.0243525
25153	-0.00105971	0.024669
25345	-2.00086	-12.2173
25537	-2.00092	-5.75156
25729	-2.00071	-4.14953
25921	-2.00077	-3.7143
26113	-0.00111693	9.06351
26305	-0.00115508	0.866755
26497	-0.000964338	0.618029
26689	-0.00113601	0.50706
26881	-0.00100249	0.438563
27073	-0.00105971	0.391531
27265	-0.00102156	0.35126
27457	-0.00102156	0.320066
27649	-0.00115508	0.2936
27841	-0.00100249	0.26847
28033	-0.00107878	0.248242
28225	-0.000945264	0.229064
28417	-0.00102156	0.210057
28609	-0.00092619	0.194267
28801	1.49925	223.081
28993	1.49927	11.7579
29185	1.49921	7.21235
29377	1.49919	4.98318
29569	1.49939	3.69886
29761	1.49931	2.97595
29953	1.49935	2.53481
30145	1.49923	2.26958
30337	1.49935	2.0666
30529	1.49927	1.89054
30721	-0.00092619	0.0472957
30913	-0.00102156	0.0634284
31105	-0.000983412	0.0560466
31297	-0.00111693	0.0498078
31489	-0.00105971	0.0460187
31681	-0.00102156	0.043957
31873	-0.00105971	0.0416288
32065	-0.000945264	0.0394114
32257	-0.000964338	0.0385168
32449	-0.00119323	0.0369963
32641	-0.00109786	0.0350774
32833	-0.00104063	0.034735
33025	-0.00107878	0.0333924
33217	-0.00092619	0.0317464
33409	-0.00102156	0.0316502
33601	-0.00109786	0.0309864
33793	-0.000907116	0.0290029
33985	-0.000983412	0.0289649
34177	-0.000964338	0.0285392
34369	-0.00092619	0.0266704
34561	-0.00104063	0.0270814
34753	-0.00100249	0.0266018
34945	-0.00119323	0.0262276
35137	-0.00105971	0.0257673
35329	-0.00100249	0.0249264
35521	-0.000983412	0.0244345
35713	-0.000945264	0.0238849
35905	-0.00107878	0.0236826
36097	-0.00104063	0.0230984
36289	-0.00104063	0.022766
36481	-0.00104063	0.0229526
36673	-0.000849894	0.0225997
36865	-0.00100249	0.0217752
37057	-0.00100249	0.0217866
37249	-0.000888042	0.0213058
37441	-0.00102156	0.0209628
37633	-0.00117415	0.0207155
37825	-0.00104063	0.020951
38017	-0.000907116	0.0202073
38209	-0.000888042	0.0202092
38401	-0.00102156	0.0201696
38593	-0.00107878	0.0197051
38785	-0.00105971	0.0198318
38977	-0.000964338	0.0196971
39169	-0.000964338	0.0191912
39361	-0.00102156	0.0193304
39553	-0.000964338	0.018937
39745	-2.00092	-8.54786
39937	-2.00086	-4.72722
40129	-2.0009	-3.64393
40321	-2.00085	-3.57086
40513	-0.00107878	8.06668
40705	-0.00102156	0.644367
40897	-0.00105971	0.426455
41089	-0.000983412	0.342136
41281	-0.00105971	0.296051
41473	-0.00105971	0.260866
41665	-0.000983412	0.233351
41857	-0.00109786	0.212119
42049	-0.00113601	0.191132
42241	-0.00100249	0.172257
42433	-0.00104063	0.156028
42625	-0.00100249	0.14132
42817	-0.000907116	0.13089
43009	-0.00107878	0.123071
43201	1.49919	192.957
43393	1.49937	8.32848
43585	1.49935	4.42731
43777	1.49942	3.1692
43969	1.49935	2.57865
44161	1.49923	2.22889
44353	1.49937	2.00402
44545	1.49942	1.85262
44737	1.49921	1.72397
44929	1.49918	1.62524
45121	-0.00105971	0.00959961
45313	-0.00104063	0.0360311
45505	-0.00107878	0.0334729
45697	-0.00119323	0.0307692
45889	-0.00107878	0.0289495
46081	-0.00111693	0.0276116
46273	-0.00105971	0.0259789
46465	-0.000983412	0.0255549
46657	-0.00100249	0.0249395
46849	-0.000983412	0.0238747
47041	-0.00117415	0.0233459
47233	-0.00107878	0.0226084
47425	-0.00104063	0.0222077
47617	-0.00102156	0.0218264
47809	-0.00100249	0.0215293
48001	-0.00100249	0.0205506
48193	-0.00107878	0.0206773
48385	-0.000983412	0.0204339
48577	-0.00102156	0.0197488
48769	-0.00100249	0.0196026
48961	-0.000983412	0.019175
49153	-0.00105971	0.0188981
49345	-0.00107878	0.0186383
49537	-0.000945264	0.0183814
49729	-0.00092619	0.0183729
49921	-0.00105971	0.0179946
50113	-0.00105971	0.0178022
50305	-0.00113601	0.0177335
50497	-0.000964338	0.01723
50689	-0.00107878	0.017141
50881	-0.00113601	0.0170411
51073	-0.00102156	0.0164483
51265	-0.000868968	0.0164565
51457	-0.00105971	0.0165416
51649	-0.00102156	0.016339
51841	-0.00111693	0.0160814
52033	-0.00102156	0.0160278
52225	-0.000964338	0.015682
52417	-0.00107878	0.0156043
52609	-0.000964338	0.0156082
52801	-0.00105971	0.0152067
52993	-0.00104063	0.0152123
53185	-0.00105971	0.0152984
53377	-0.00107878	0.0148162
53569	-0.00102156	0.014883
53761	-0.00105971	0.0149524
53953	-0.00102156	0.0147168
54145	-2.00077	-6.52274
54337	-2.00088	-4.10271
54529	-2.00077	-3.53831
54721	-2.00098	-3.31404
54913	-0.00104063	7.60981
55105	-0.00102156	0.500086
55297	-0.00092619	0.314242
55489	-0.00102156	0.247922
55681	-0.00104063	0.211974
55873	-0.00100249	0.182299
56065	-0.00115508	0.15785
56257	-0.00105971	0.137479
56449	-0.000945264	0.121442
56641	-0.00113601	0.109842
56833	-0.000964338	0.101239
57025	-0.00111693	0.0938144
57217	-0.00100249	0.0876777
57409	-0.00107878	0.0826384
57600	-0.00100249	0.0782973